File: dataset/NCM/V3.6-3.7/CY25-05_1-#1.csv
Cycle,Charge_Current,Discharge_Current,Temperature,Capacity_Increment,Relaxation_Voltage,Discharge_Capacity,Start_Voltage,End_Voltage
2,0.5,1,25,"[0.0, 32.0513, 69.9755, 108.394, 147.3, 189.432, 235.459, 290.112, 347.241, 393.548]","[4.18168, 4.17727, 4.1744, 4.17219, 4.17042, 4.16896, 4.16786, 4.16688, 4.16601, 4.16515, 4.16459, 4.16396, 4.16349, 4.16306]",3221.57,3.6,3.7
3,0.5,1,25,"[0.0, 32.7149, 70.6905, 108.297, 146.859, 188.849, 235.35, 289.271, 346.541, 393.548]","[4.181643, 4.17719, 4.17432, 4.17211, 4.170382, 4.169004, 4.16782, 4.16696, 4.16593, 4.16522, 4.16455, 4.164, 4.16341, 4.16298]",3220.47,3.6,3.7
4,0.5,1,25,"[0.0, 25.974, 64.1181, 101.4, 140.55, 181.924, 228.449, 281.88, 338.993, 393.549]","[4.18156, 4.17712, 4.17412, 4.17192, 4.17019, 4.16885, 4.1677, 4.16664, 4.16593, 4.16511, 4.16436, 4.16381, 4.16337, 4.16274]",3218.16,3.6,3.7
5,0.5,1,25,"[0.0, 25.913, 63.7815, 101.531, 140.057, 181.111, 227.15, 280.037, 337.073, 393.552]","[4.181643, 4.17727, 4.17432, 4.17208, 4.17034, 4.16904, 4.16782, 4.16672, 4.16601, 4.16511, 4.16455, 4.16392, 4.16349, 4.16294]",3216.67,3.6,3.7
6,0.5,1,25,"[0.0, 30.0736, 68.164, 105.28, 143.745, 185.037, 230.623, 283.414, 340.436, 393.557]","[4.18149, 4.17704, 4.1742, 4.17208, 4.17034, 4.16889, 4.16778, 4.16664, 4.16589, 4.16522, 4.16452, 4.16408, 4.16349, 4.1629]",3214.31,3.6,3.7
7,0.5,1,25,"[0.0, 33.5908, 70.7895, 108.472, 147.076, 188.327, 233.193, 285.507, 343.178, 393.554]","[4.18172, 4.17723, 4.17424, 4.17211, 4.1703, 4.168807, 4.16774, 4.16664, 4.16589, 4.16515, 4.16448, 4.16392, 4.16333, 4.1629]",3212.26,3.6,3.7
8,0.5,1,25,"[0.0, 22.7346, 60.1208, 98.0208, 135.818, 176.684, 221.752, 274.324, 331.654, 378.975]","[4.1816, 4.17719, 4.17424, 4.171957, 4.17022, 4.16893, 4.1677, 4.16672, 4.16589, 4.16515, 4.16459, 4.164, 4.16337, 4.16298]",3209.9,3.6,3.7
9,0.5,1,25,"[0.0, 25.4942, 62.8223, 99.9512, 138.545, 178.508, 223.776, 276.164, 333.509, 378.983]","[4.18149, 4.17708, 4.1742, 4.17204, 4.170382, 4.16885, 4.16767, 4.16672, 4.16593, 4.16507, 4.1644, 4.163846, 4.16337, 4.1629]",3207.33,3.6,3.7
10,0.5,1,25,"[0.0, 28.7399, 65.6045, 103.161, 140.739, 181.46, 226.335, 278.157, 335.875, 378.98]","[4.18156, 4.17708, 4.17432, 4.172, 4.17026, 4.16885, 4.16774, 4.166563, 4.165854, 4.16515, 4.16455, 4.16392, 4.16337, 4.1629]",3205.08,3.6,3.7
11,0.5,1,25,"[0.0, 30.9281, 67.9438, 105.453, 143.261, 183.698, 228.118, 279.953, 337.02, 393.555]","[4.1816, 4.17696, 4.17412, 4.171957, 4.170146, 4.16885, 4.16767, 4.1666, 4.165854, 4.164988, 4.16448, 4.16389, 4.16337, 4.16282]",3202.33,3.6,3.7
12,0.5,1,25,"[0.0, 31.4603, 68.6126, 105.714, 143.764, 184.087, 228.081, 280.177, 337.152, 393.557]","[4.18149, 4.17704, 4.173965, 4.17176, 4.17011, 4.168807, 4.16759, 4.16648, 4.1657, 4.16491, 4.1642, 4.16381, 4.16326, 4.162704]",3199.81,3.6,3.7
13,0.5,1,25,"[0.0, 32.026, 68.8785, 106.428, 143.834, 184.285, 228.669, 280.361, 337.322, 393.549]","[4.181407, 4.17704, 4.174, 4.17204, 4.17011, 4.16873, 4.16759, 4.16652, 4.165854, 4.16503, 4.16428, 4.16377, 4.16329, 4.16274]",3197.31,3.6,3.7
14,0.5,1,25,"[0.0, 34.3803, 70.9729, 108.445, 145.826, 186.611, 230.343, 281.624, 338.536, 393.549]","[4.1816, 4.17708, 4.17416, 4.17188, 4.17026, 4.16893, 4.16759, 4.1666, 4.16578, 4.16515, 4.16452, 4.16381, 4.16337, 4.16294]",3199.05,3.6,3.7
15,0.5,1,25,"[0.0, 30.2976, 67.3243, 104.75, 142.286, 181.998, 225.986, 277.149, 334.295, 378.97]","[4.181407, 4.176918, 4.17393, 4.17184, 4.16999, 4.16869, 4.16755, 4.16648, 4.16558, 4.16483, 4.16424, 4.16369, 4.16322, 4.16274]",3191.67,3.6,3.7
16,0.5,1,25,"[0.0, 33.7008, 70.1091, 107.321, 144.736, 184.435, 228.839, 279.485, 336.5, 393.557]","[4.18145, 4.17712, 4.174, 4.171721, 4.170146, 4.168807, 4.16751, 4.16652, 4.1657, 4.16495, 4.16432, 4.16365, 4.16322, 4.162704]",3189.33,3.6,3.7
17,0.5,1,25,"[0.0, 20.8268, 57.79, 94.3841, 131.939, 171.981, 215.248, 266.604, 323.324, 378.984]","[4.18137, 4.17696, 4.174, 4.1718, 4.17003, 4.16865, 4.16751, 4.16648, 4.165657, 4.16487, 4.1642, 4.16373, 4.16322, 4.16266]",3186.78,3.6,3.7
18,0.5,1,25,"[0.0, 21.9143, 58.6986, 95.727, 133.12, 172.781, 215.886, 266.79, 323.553, 378.974]","[4.18137, 4.17684, 4.174, 4.17188, 4.17011, 4.16861, 4.16751, 4.16664, 4.16578, 4.16503, 4.16416, 4.16373, 4.16322, 4.162704]",3184.11,3.6,3.7
19,0.5,1,25,"[0.0, 24.3213, 60.7881, 97.6442, 134.998, 174.432, 218.452, 268.488, 325.136, 378.982]","[4.18129, 4.176918, 4.17393, 4.17176, 4.170146, 4.16861, 4.167429, 4.16644, 4.16554, 4.16487, 4.16424, 4.16373, 4.1631, 4.16263]",3181.69,3.6,3.7
20,0.5,1,25,"[0.0, 24.7011, 61.0722, 97.669, 135.276, 174.583, 217.828, 268.361, 324.775, 378.98]","[4.18137, 4.17688, 4.174, 4.17184, 4.17003, 4.16865, 4.16747, 4.16641, 4.165657, 4.16491, 4.16424, 4.16365, 4.16322, 4.16263]",3179.18,3.6,3.7
21,0.5,1,25,"[0.0, 25.2072, 61.5655, 98.3558, 135.834, 175.154, 218.287, 268.166, 324.919, 378.971]","[4.18129, 4.17684, 4.174, 4.171721, 4.16995, 4.168571, 4.16731, 4.16648, 4.1655, 4.16479, 4.1642, 4.16365, 4.1631, 4.16263]",3176.78,3.6,3.7
22,0.5,1,25,"[0.0, 26.196, 62.4945, 98.9682, 136.592, 175.734, 218.956, 268.704, 324.945, 378.972]","[4.18105, 4.1768, 4.173768, 4.1716, 4.16987, 4.16845, 4.16735, 4.16633, 4.16534, 4.16475, 4.16404, 4.16349, 4.16302, 4.16243]",3173.96,3.6,3.7
23,0.5,1,25,"[0.0, 25.7937, 62.3485, 99.2325, 136.238, 175.596, 217.988, 267.892, 324.038, 378.974]","[4.18133, 4.1766, 4.173768, 4.17164, 4.16987, 4.16841, 4.16727, 4.16641, 4.16538, 4.16467, 4.16404, 4.16341, 4.16298, 4.16243]",3171.74,3.6,3.7
24,0.5,1,25,"[0.0, 26.7287, 62.7775, 99.3217, 136.911, 176.169, 218.012, 268.51, 324.709, 378.969]","[4.18113, 4.176682, 4.173768, 4.17156, 4.16995, 4.168571, 4.16727, 4.16633, 4.1655, 4.16475, 4.164, 4.16333, 4.16286, 4.16251]",3169.26,3.6,3.7
25,0.5,1,25,"[0.0, 26.1211, 62.3111, 98.5517, 136.103, 174.861, 217.684, 267.361, 323.351, 378.972]","[4.18121, 4.17672, 4.17385, 4.17164, 4.16979, 4.16845, 4.167429, 4.16633, 4.1655, 4.16471, 4.16404, 4.16345, 4.16294, 4.16239]",3166.9,3.6,3.7
26,0.5,1,25,"[0.0, 27.6285, 63.9075, 100.738, 137.335, 176.298, 218.46, 268.587, 324.819, 378.966]","[4.18121, 4.17684, 4.17373, 4.1716, 4.16987, 4.16841, 4.16727, 4.16621, 4.165421, 4.16467, 4.16408, 4.16349, 4.16286, 4.16243]",3164.58,3.6,3.7
27,0.5,1,25,"[0.0, 26.8545, 62.8345, 99.4369, 136.275, 175.304, 218.291, 267.226, 323.041, 378.963]","[4.18121, 4.176682, 4.17365, 4.17145, 4.16975, 4.16841, 4.16719, 4.16621, 4.16538, 4.16459, 4.16408, 4.16341, 4.16294, 4.16243]",3162.21,3.6,3.7
28,0.5,1,25,"[0.0, 25.5245, 61.7334, 97.8794, 135.143, 173.99, 216.528, 265.207, 321.143, 378.964]","[4.18105, 4.17652, 4.17365, 4.17133, 4.16967, 4.16826, 4.16715, 4.16609, 4.165185, 4.16452, 4.16381, 4.16329, 4.162704, 4.16235]",3159.61,3.6,3.7
29,0.5,1,25,"[0.0, 28.3824, 63.9865, 100.643, 137.804, 176.586, 218.772, 267.418, 323.415, 378.96]","[4.18105, 4.17656, 4.17361, 4.17141, 4.16975, 4.16822, 4.16704, 4.16605, 4.16526, 4.16444, 4.163846, 4.16318, 4.162704, 4.162271]",3157.63,3.6,3.7
30,0.5,1,25,"[0.0, 24.5274, 60.1497, 96.9919, 133.717, 172.269, 214.886, 263.658, 319.683, 364.382]","[4.18109, 4.1766, 4.173532, 4.17137, 4.16967, 4.16822, 4.16704, 4.16597, 4.16511, 4.16444, 4.16365, 4.16314, 4.162704, 4.16211]",3155.4,3.6,3.7
31,0.5,1,25,"[0.0, 25.1839, 60.7405, 97.4664, 134.127, 173.298, 215.231, 264.091, 319.668, 364.383]","[4.18113, 4.17652, 4.173768, 4.17145, 4.16963, 4.1683, 4.16711, 4.16609, 4.16534, 4.16448, 4.16392, 4.16337, 4.16274, 4.162271]",3153.4,3.6,3.7
32,0.5,1,25,"[0.0, 24.482, 60.4844, 96.8954, 133.914, 172.333, 214.443, 262.738, 318.48, 364.382]","[4.18121, 4.17656, 4.17365, 4.17141, 4.16967, 4.16818, 4.16719, 4.16617, 4.165185, 4.16455, 4.16381, 4.16326, 4.162704, 4.162271]",3151.1,3.6,3.7
33,0.5,1,25,"[0.0, 23.793, 59.5355, 95.9121, 132.466, 171.245, 213.433, 261.474, 317.582, 364.379]","[4.18097, 4.17649, 4.17361, 4.17133, 4.16963, 4.16822, 4.16704, 4.16605, 4.165185, 4.16432, 4.16373, 4.16318, 4.162704, 4.16223]",3148.92,3.6,3.7
34,0.5,1,25,"[0.0, 22.3439, 57.4414, 94.0685, 130.718, 169.482, 211.324, 259.67, 314.467, 364.387]","[4.18097, 4.17645, 4.173532, 4.17133, 4.16967, 4.16818, 4.16704, 4.16605, 4.165185, 4.16444, 4.16373, 4.16318, 4.16259, 4.16215]",3146.79,3.6,3.7
35,0.5,1,25,"[0.0, 33.6331, 68.996, 105.521, 142.379, 180.866, 222.649, 270.392, 326.184, 378.97]","[4.18109, 4.17641, 4.17361, 4.17145, 4.16967, 4.16822, 4.16692, 4.16605, 4.16526, 4.16448, 4.16381, 4.16318, 4.162704, 4.16219]",3144.86,3.6,3.7
36,0.5,1,25,"[0.0, 22.2271, 57.9166, 94.011, 130.984, 169.258, 211.087, 258.51, 314.61, 364.394]","[4.18105, 4.1766, 4.17365, 4.17141, 4.16967, 4.16818, 4.16711, 4.16601, 4.16507, 4.16444, 4.163846, 4.16326, 4.16259, 4.16219]",3142.99,3.6,3.7
37,0.5,1,25,"[0.0, 20.985, 56.554, 92.8258, 129.667, 167.932, 209.679, 257.216, 312.234, 364.388]","[4.18097, 4.17664, 4.17357, 4.17137, 4.16967, 4.1681, 4.16704, 4.16609, 4.16522, 4.16428, 4.16381, 4.16314, 4.16259, 4.16207]",3141.19,3.6,3.7
38,0.5,1,25,"[0.0, 21.0394, 56.5062, 92.4366, 129.417, 167.712, 209.102, 257.068, 311.839, 364.384]","[4.18109, 4.17664, 4.17349, 4.17137, 4.16956, 4.168138, 4.16704, 4.16601, 4.16515, 4.1644, 4.16377, 4.16326, 4.16255, 4.16219]",3139.01,3.6,3.7
39,0.5,1,25,"[0.0, 30.1321, 65.8217, 101.782, 138.639, 176.825, 218.01, 265.952, 321.356, 378.809]","[4.18093, 4.17637, 4.17345, 4.17125, 4.16948, 4.168138, 4.16688, 4.16597, 4.16511, 4.16432, 4.16361, 4.16322, 4.16255, 4.16196]",3136.86,3.6,3.7
40,0.5,1,25,"[0.0, 31.6076, 67.1343, 103.106, 139.701, 177.974, 219.535, 267.351, 321.554, 378.972]","[4.18101, 4.17652, 4.17349, 4.17117, 4.16956, 4.16818, 4.16688, 4.165854, 4.164988, 4.16428, 4.16365, 4.1631, 4.16255, 4.162035]",3135.2,3.6,3.7
41,0.5,1,25,"[0.0, 30.3722, 65.7877, 102.197, 138.593, 176.789, 218.016, 265.837, 319.771, 364.397]","[4.18089, 4.17637, 4.17345, 4.17125, 4.16956, 4.16818, 4.16684, 4.16593, 4.16507, 4.16436, 4.16369, 4.16306, 4.16259, 4.16207]",3133.63,3.6,3.7
42,0.5,1,25,"[0.0, 30.0222, 64.8807, 101.195, 137.801, 176.194, 217.19, 264.502, 319.308, 364.182]","[4.18097, 4.17629, 4.173532, 4.17125, 4.16952, 4.16806, 4.1668, 4.16593, 4.16507, 4.16424, 4.16365, 4.16306, 4.16239, 4.162]",3131.57,3.6,3.7
43,0.5,1,25,"[0.0, 28.7109, 64.5312, 100.309, 137.293, 175.216, 216.575, 263.444, 318.752, 364.327]","[4.18093, 4.17645, 4.17341, 4.17125, 4.16963, 4.16806, 4.16688, 4.16589, 4.16507, 4.16424, 4.16365, 4.16306, 4.162468, 4.162035]",3129.75,3.6,3.7
44,0.5,1,25,"[0.0, 30.1134, 65.7176, 101.666, 137.879, 176.225, 217.424, 264.252, 319.083, 364.379]","[4.18097, 4.17649, 4.173532, 4.17121, 4.16952, 4.168138, 4.16696, 4.16574, 4.16515, 4.16428, 4.16365, 4.16298, 4.162468, 4.16207]",3127.97,3.6,3.7
45,0.5,1,25,"[0.0, 25.0229, 60.3162, 96.0978, 132.531, 170.5, 212.012, 258.532, 313.404, 364.366]","[4.18089, 4.17641, 4.17345, 4.17105, 4.1694, 4.16798, 4.1668, 4.165854, 4.16491, 4.16428, 4.16361, 4.16298, 4.162468, 4.16184]",3126.06,3.6,3.7
46,0.5,1,25,"[0.0, 25.2387, 60.2585, 96.0017, 132.253, 170.46, 211.535, 258.488, 312.989, 364.366]","[4.18093, 4.17629, 4.17337, 4.17133, 4.16944, 4.16798, 4.16684, 4.16581, 4.16503, 4.16436, 4.16357, 4.16298, 4.16243, 4.162]",3124.43,3.6,3.7
47,0.5,1,25,"[0.0, 26.3703, 61.4578, 97.444, 133.708, 171.879, 212.797, 259.619, 314.012, 364.366]","[4.18089, 4.17633, 4.17334, 4.17117, 4.16944, 4.16798, 4.16684, 4.1657, 4.16487, 4.16424, 4.16365, 4.16298, 4.16239, 4.16188]",3122.68,3.6,3.7
48,0.5,1,25,"[0.0, 29.6079, 64.5496, 100.549, 137.005, 174.851, 215.786, 262.929, 316.971, 364.234]","[4.1807, 4.17633, 4.17326, 4.17101, 4.16932, 4.16794, 4.1668, 4.16581, 4.16483, 4.16408, 4.16341, 4.1629, 4.162271, 4.16188]",3120.63,3.6,3.7
49,0.5,1,25,"[0.0, 25.1792, 60.201, 96.1385, 132.281, 170.263, 211.463, 258.127, 312.266, 364.355]","[4.18082, 4.17621, 4.17341, 4.17117, 4.16936, 4.1679, 4.16684, 4.16574, 4.16491, 4.1642, 4.16345, 4.16294, 4.16231, 4.16184]",3119.03,3.6,3.7
50,0.5,1,25,"[0.0, 26.1208, 61.5262, 97.1436, 133.448, 171.393, 212.037, 258.867, 313.393, 364.35]","[4.18089, 4.17621, 4.173296, 4.17109, 4.16936, 4.16794, 4.1668, 4.1657, 4.164988, 4.16408, 4.16341, 4.16286, 4.16243, 4.16176]",3117.29,3.6,3.7
51,0.5,1,25,"[0.0, 25.1118, 60.6818, 96.2082, 132.323, 170.695, 211.06, 257.524, 312.034, 364.341]","[4.18082, 4.17625, 4.173296, 4.17113, 4.1694, 4.1679, 4.1668, 4.16574, 4.16503, 4.16428, 4.16345, 4.16286, 4.16243, 4.16184]",3115.62,3.6,3.7
52,0.5,1,25,"[0.0, 20.942, 56.077, 91.8292, 128.119, 165.857, 206.166, 252.903, 307.58, 349.763]","[4.1807, 4.17637, 4.17334, 4.17101, 4.1692, 4.16786, 4.1668, 4.16574, 4.16483, 4.16408, 4.16329, 4.16286, 4.16231, 4.16176]",3113.8,3.6,3.7
53,0.5,1,25,"[0.0, 32.9601, 67.8925, 103.579, 140.325, 177.77, 219.022, 264.484, 318.867, 364.34]","[4.18078, 4.17629, 4.173296, 4.17101, 4.16936, 4.1679, 4.16672, 4.1657, 4.16483, 4.16404, 4.16345, 4.16274, 4.16231, 4.16176]",3112.22,3.6,3.7
54,0.5,1,25,"[0.0, 22.9212, 57.9319, 93.6832, 129.8, 167.479, 208.033, 254.777, 307.939, 364.338]","[4.18082, 4.17613, 4.17322, 4.17085, 4.1692, 4.16774, 4.16672, 4.16562, 4.16479, 4.164, 4.16341, 4.16263, 4.16219, 4.16188]",3110.45,3.6,3.7
55,0.5,1,25,"[0.0, 21.3528, 56.4982, 92.4153, 128.509, 166.224, 206.635, 252.843, 306.29, 349.758]","[4.18074, 4.17613, 4.17318, 4.17109, 4.16924, 4.16782, 4.1666, 4.165657, 4.16487, 4.16404, 4.16337, 4.16282, 4.16223, 4.16176]",3108.94,3.6,3.7
56,0.5,1,25,"[0.0, 21.0249, 55.7112, 91.6582, 127.94, 165.452, 205.864, 251.997, 305.14, 349.76]","[4.18058, 4.17609, 4.17318, 4.17093, 4.16928, 4.1677, 4.16644, 4.16562, 4.16471, 4.16392, 4.16318, 4.16266, 4.16215, 4.16164]",3107.14,3.6,3.7
57,0.5,1,25,"[0.0, 19.9483, 54.6925, 90.1029, 126.66, 164.262, 205.071, 250.639, 303.953, 349.764]","[4.18058, 4.17625, 4.17314, 4.17101, 4.1692, 4.16774, 4.16676, 4.1657, 4.16483, 4.16408, 4.16333, 4.16274, 4.16223, 4.16176]",3105.81,3.6,3.7
58,0.5,1,25,"[0.0, 32.3358, 67.0539, 102.884, 139.047, 176.219, 216.79, 262.862, 316.355, 364.162]","[4.18074, 4.17613, 4.17322, 4.17097, 4.16916, 4.16778, 4.1666, 4.165657, 4.16459, 4.16396, 4.16329, 4.16266, 4.16219, 4.16164]",3104.14,3.6,3.7
59,0.5,1,25,"[0.0, 31.8347, 66.7111, 102.023, 138.41, 175.678, 216.339, 261.703, 315.324, 364.048]","[4.1807, 4.17617, 4.173099, 4.17089, 4.16916, 4.16774, 4.166563, 4.16558, 4.16463, 4.164, 4.16333, 4.16263, 4.16219, 4.16172]",3102.71,3.6,3.7
60,0.5,1,25,"[0.0, 29.8683, 64.4602, 100.401, 136.699, 173.33, 213.868, 259.871, 313.068, 364.333]","[4.18062, 4.17617, 4.17314, 4.170815, 4.16908, 4.1677, 4.16648, 4.16546, 4.16463, 4.16392, 4.16322, 4.16266, 4.16207, 4.16156]",3100.98,3.6,3.7
61,0.5,1,25,"[0.0, 29.5124, 64.4781, 100.054, 136.081, 173.852, 214.222, 259.481, 312.391, 364.333]","[4.18066, 4.17605, 4.17322, 4.17078, 4.1692, 4.16774, 4.1666, 4.16562, 4.16467, 4.164, 4.16326, 4.16263, 4.16223, 4.16164]",3099.4,3.6,3.7
62,0.5,1,25,"[0.0, 29.2607, 64.1364, 99.7763, 135.644, 172.803, 213.286, 258.951, 312.096, 364.023]","[4.18074, 4.17621, 4.17318, 4.17105, 4.1692, 4.16774, 4.1666, 4.16562, 4.16467, 4.164, 4.16337, 4.16282, 4.16231, 4.16184]",3098.14,3.6,3.7
63,0.5,1,25,"[0.0, 28.3634, 63.1196, 98.7464, 134.932, 172.005, 212.12, 257.878, 311.081, 364.342]","[4.18078, 4.17605, 4.17334, 4.17101, 4.16924, 4.16778, 4.16664, 4.165657, 4.16483, 4.16404, 4.16329, 4.162704, 4.16223, 4.16184]",3096.69,3.6,3.7
64,0.5,1,25,"[0.0, 26.3489, 61.2195, 96.8894, 132.377, 170.45, 210.716, 255.953, 308.6, 364.173]","[4.18078, 4.17629, 4.173296, 4.17101, 4.16932, 4.16786, 4.16668, 4.16581, 4.16475, 4.16408, 4.16345, 4.16286, 4.162271, 4.16176]",3095.42,3.6,3.7
65,0.5,1,25,"[0.0, 23.0554, 57.9816, 93.518, 129.509, 166.684, 206.797, 252.538, 305.295, 349.763]","[4.18078, 4.17605, 4.17318, 4.17085, 4.16912, 4.16767, 4.16652, 4.16554, 4.16463, 4.163846, 4.16326, 4.16263, 4.16219, 4.16164]",3093.68,3.6,3.7
66,0.5,1,25,"[0.0, 22.329, 57.0372, 92.2669, 128.539, 165.779, 205.834, 251.028, 303.593, 349.83]","[4.18066, 4.17613, 4.17302, 4.17085, 4.16916, 4.16774, 4.16652, 4.1655, 4.16459, 4.16396, 4.16326, 4.16259, 4.16211, 4.16172]",3092.33,3.6,3.7
67,0.5,1,25,"[0.0, 20.9321, 55.2468, 90.717, 126.951, 164.414, 204.19, 249.03, 302.006, 349.821]","[4.18074, 4.17617, 4.17306, 4.17097, 4.1692, 4.1677, 4.16652, 4.16562, 4.16471, 4.16392, 4.16329, 4.16263, 4.16215, 4.16168]",3090.99,3.6,3.7
68,0.5,1,25,"[0.0, 32.7366, 67.1715, 102.682, 138.979, 176.079, 216.134, 260.917, 313.707, 364.302]","[4.18074, 4.17625, 4.17326, 4.17105, 4.16932, 4.16786, 4.16664, 4.16574, 4.16479, 4.16408, 4.16341, 4.16286, 4.16223, 4.1618]",3089.97,3.6,3.7
69,0.5,1,25,"[0.0, 24.1078, 58.4097, 94.3744, 129.868, 167.463, 207.256, 252.685, 305.262, 349.349]","[4.18078, 4.17621, 4.17334, 4.170815, 4.16924, 4.16778, 4.166563, 4.16562, 4.16467, 4.164, 4.16329, 4.16286, 4.16223, 4.16168]",3088.59,3.6,3.7
70,0.5,1,25,"[0.0, 22.3327, 56.9431, 92.1535, 128.017, 165.181, 205.125, 250.108, 302.812, 349.893]","[4.18062, 4.17609, 4.17302, 4.17085, 4.16904, 4.16774, 4.16637, 4.16554, 4.16467, 4.16381, 4.16333, 4.16259, 4.162271, 4.1616]",3087.03,3.6,3.7
71,0.5,1,25,"[0.0, 21.0873, 55.7858, 91.1695, 127.029, 164.519, 204.228, 248.919, 301.331, 349.745]","[4.18058, 4.17609, 4.17306, 4.17093, 4.16893, 4.16763, 4.16641, 4.16558, 4.16459, 4.16377, 4.16306, 4.16251, 4.16207, 4.16152]",3085.48,3.6,3.7
72,0.5,1,25,"[0.0, 32.3901, 66.712, 102.065, 137.949, 175.14, 215.163, 259.922, 311.862, 364.407]","[4.18046, 4.17601, 4.1729, 4.17074, 4.169004, 4.16751, 4.16629, 4.16538, 4.16436, 4.16357, 4.1629, 4.16251, 4.16184, 4.16148]",3084.01,3.6,3.7
73,0.5,1,25,"[0.0, 31.5826, 65.929, 101.245, 137.263, 174.304, 214.649, 259.309, 311.476, 363.709]","[4.18066, 4.17621, 4.17314, 4.17085, 4.16908, 4.16767, 4.166563, 4.16554, 4.16467, 4.16389, 4.16322, 4.16263, 4.16211, 4.16164]",3083.2,3.6,3.7
74,0.5,1,25,"[0.0, 22.9149, 57.2263, 92.7469, 128.848, 165.798, 205.881, 250.122, 302.678, 349.914]","[4.18078, 4.17613, 4.173099, 4.17101, 4.16916, 4.16774, 4.16648, 4.1655, 4.16463, 4.16396, 4.16326, 4.16266, 4.16211, 4.16176]",3082.07,3.6,3.7
75,0.5,1,25,"[0.0, 20.5097, 55.0497, 90.362, 126.142, 163.504, 203.313, 247.627, 299.995, 349.844]","[4.18066, 4.17613, 4.173296, 4.17093, 4.1692, 4.16782, 4.1666, 4.165421, 4.16479, 4.16404, 4.16329, 4.16282, 4.16207, 4.16156]",3080.86,3.6,3.7
76,0.5,1,25,"[0.0, 19.9447, 54.2731, 89.795, 125.649, 162.355, 202.891, 246.727, 299.4, 349.907]","[4.18054, 4.17617, 4.17298, 4.17085, 4.16924, 4.1677, 4.166563, 4.16554, 4.16471, 4.16392, 4.16314, 4.16263, 4.16207, 4.16156]",3079.45,3.6,3.7
77,0.5,1,25,"[0.0, 31.3849, 65.8977, 101.01, 137.315, 174.369, 213.716, 258.468, 310.581, 364.288]","[4.1803, 4.17582, 4.17274, 4.1705, 4.16873, 4.16735, 4.16617, 4.16507, 4.16416, 4.16345, 4.16286, 4.16223, 4.16168, 4.16129]",3077.38,3.6,3.7
78,0.5,1,25,"[0.0, 25.7295, 60.2302, 95.6147, 131.112, 168.184, 207.788, 252.104, 304.178, 349.795]","[4.18054, 4.17582, 4.17282, 4.17054, 4.16873, 4.16731, 4.16621, 4.16515, 4.1642, 4.16349, 4.16274, 4.16223, 4.16172, 4.16129]",3076.05,3.6,3.7
79,0.5,1,25,"[0.0, 24.2957, 58.7682, 93.7912, 130.045, 166.912, 206.3, 250.669, 303.258, 349.762]","[4.1805, 4.1757, 4.17267, 4.1705, 4.168807, 4.16739, 4.16617, 4.16503, 4.16412, 4.16349, 4.162704, 4.16211, 4.16164, 4.16113]",3074.56,3.6,3.7
80,0.5,1,25,"[0.0, 22.5125, 56.3595, 91.4453, 127.624, 164.661, 204.374, 248.418, 300.307, 349.542]","[4.1803, 4.17582, 4.17278, 4.170579, 4.16861, 4.16735, 4.16617, 4.16522, 4.16424, 4.16349, 4.16286, 4.16223, 4.16176, 4.16129]",3073.69,3.6,3.7
81,0.5,1,25,"[0.0, 25.3439, 59.6804, 94.835, 130.977, 167.83, 207.27, 251.387, 303.473, 349.8]","[4.18046, 4.17578, 4.17286, 4.17062, 4.168807, 4.16739, 4.16609, 4.16511, 4.16424, 4.16341, 4.16274, 4.16231, 4.16168, 4.16125]",3072.42,3.6,3.7
82,0.5,1,25,"[0.0, 24.5137, 58.8821, 93.6493, 129.747, 166.743, 206.238, 250.228, 302.138, 349.751]","[4.18026, 4.17582, 4.17271, 4.1705, 4.16873, 4.16731, 4.16621, 4.16511, 4.16416, 4.16349, 4.16278, 4.16215, 4.16156, 4.16113]",3071.17,3.6,3.7
83,0.5,1,25,"[0.0, 23.5278, 57.7578, 92.7333, 128.76, 165.359, 205.091, 249.599, 300.838, 349.238]","[4.1803, 4.17586, 4.17271, 4.17054, 4.16877, 4.16731, 4.16617, 4.16511, 4.16432, 4.16341, 4.162704, 4.16215, 4.16152, 4.16101]",3069.89,3.6,3.7
84,0.5,1,25,"[0.0, 19.5675, 54.1747, 89.3147, 124.793, 161.751, 201.213, 245.268, 296.946, 349.367]","[4.18038, 4.17582, 4.17267, 4.17054, 4.16873, 4.16731, 4.16605, 4.16495, 4.1642, 4.16345, 4.16263, 4.162, 4.16168, 4.16109]",3068.64,3.6,3.7
85,0.5,1,25,"[0.0, 20.602, 55.3665, 89.8151, 126.09, 162.521, 202.403, 246.341, 297.865, 349.339]","[4.18026, 4.1757, 4.17267, 4.17046, 4.16861, 4.16719, 4.16605, 4.16503, 4.16416, 4.16337, 4.16263, 4.16211, 4.16156, 4.16117]",3067.31,3.6,3.7
86,0.5,1,25,"[0.0, 18.9817, 53.2066, 88.3677, 124.201, 161.197, 200.443, 244.453, 296.011, 349.777]","[4.18023, 4.17566, 4.17255, 4.1703, 4.16865, 4.16707, 4.16601, 4.16483, 4.16404, 4.16314, 4.16263, 4.16196, 4.16141, 4.160893]",3065.93,3.6,3.7
87,0.5,1,25,"[0.0, 30.2636, 64.4262, 99.7348, 135.41, 172.624, 211.533, 255.591, 306.665, 349.71]","[4.18023, 4.17566, 4.17263, 4.17042, 4.16869, 4.16715, 4.16597, 4.16487, 4.16408, 4.16318, 4.16259, 4.16188, 4.16148, 4.16093]",3064.83,3.6,3.7
88,0.5,1,25,"[0.0, 25.8964, 60.0791, 95.3889, 131.257, 168.005, 207.131, 251.315, 302.682, 349.423]","[4.18034, 4.17566, 4.17263, 4.170382, 4.16865, 4.16719, 4.16597, 4.16487, 4.16404, 4.16329, 4.16255, 4.16196, 4.16152, 4.16109]",3063.92,3.6,3.7
89,0.5,1,25,"[0.0, 28.7358, 62.9465, 98.4519, 134.114, 171.045, 210.29, 253.932, 305.849, 349.715]","[4.18019, 4.17558, 4.17263, 4.17034, 4.16865, 4.16707, 4.16593, 4.16487, 4.164, 4.16322, 4.16263, 4.16192, 4.16144, 4.16085]",3062.54,3.6,3.7
90,0.5,1,25,"[0.0, 27.4444, 61.7125, 96.6415, 132.451, 169.294, 208.372, 252.529, 303.949, 349.175]","[4.18023, 4.17558, 4.17263, 4.170382, 4.168571, 4.16715, 4.16601, 4.16495, 4.16404, 4.16326, 4.162704, 4.162, 4.16144, 4.160893]",3061.48,3.6,3.7
91,0.5,1,25,"[0.0, 27.8348, 61.773, 96.9479, 132.623, 169.511, 208.748, 252.756, 303.56, 349.792]","[4.18023, 4.17562, 4.17251, 4.1703, 4.16853, 4.16696, 4.16593, 4.16483, 4.16389, 4.16322, 4.16263, 4.16192, 4.16141, 4.16097]",3060.06,3.6,3.7
92,0.5,1,25,"[0.0, 25.3459, 59.2409, 94.3063, 129.916, 166.837, 205.682, 249.918, 301.3, 349.384]","[4.18003, 4.17554, 4.17239, 4.17026, 4.16837, 4.16704, 4.16581, 4.16471, 4.16377, 4.16314, 4.16251, 4.16184, 4.16125, 4.16077]",3058.61,3.6,3.7
93,0.5,1,25,"[0.0, 20.024, 54.1342, 89.058, 124.407, 161.686, 201.14, 244.59, 295.497, 349.348]","[4.18019, 4.1755, 4.17255, 4.17026, 4.16845, 4.166996, 4.16578, 4.16471, 4.163846, 4.16314, 4.162468, 4.16184, 4.16117, 4.160696]",3057.52,3.6,3.7
94,0.5,1,25,"[0.0, 25.6631, 60.0483, 94.9015, 130.655, 167.581, 206.641, 250.544, 301.326, 349.598]","[4.18019, 4.17546, 4.17259, 4.17022, 4.16845, 4.16696, 4.16581, 4.16483, 4.16392, 4.16314, 4.16243, 4.16188, 4.16133, 4.16085]",3056.69,3.6,3.7
95,0.5,1,25,"[0.0, 25.5502, 59.3928, 94.7332, 130.301, 167.07, 206.518, 250.118, 301.036, 349.753]","[4.18011, 4.17554, 4.17243, 4.170146, 4.16833, 4.166996, 4.1657, 4.16467, 4.16381, 4.1631, 4.16239, 4.16172, 4.16125, 4.16074]",3055.11,3.6,3.7
96,0.5,1,25,"[0.0, 20.8265, 54.9749, 89.9923, 125.503, 162.427, 201.497, 244.929, 296.242, 349.694]","[4.18003, 4.17558, 4.17247, 4.17011, 4.16845, 4.16696, 4.1657, 4.16475, 4.16389, 4.16318, 4.16235, 4.16176, 4.16117, 4.160696]",3053.97,3.6,3.7
97,0.5,1,25,"[0.0, 19.6162, 53.5319, 88.5087, 124.204, 160.962, 200.136, 243.415, 294.578, 349.795]","[4.180068, 4.175343, 4.17239, 4.170146, 4.1683, 4.1668, 4.16574, 4.16463, 4.16373, 4.1629, 4.16231, 4.1616, 4.16113, 4.16066]",3052.61,3.6,3.7
98,0.5,1,25,"[0.0, 18.9012, 52.5525, 87.4276, 123.31, 159.706, 199.465, 242.705, 293.271, 349.349]","[4.180068, 4.17546, 4.17239, 4.17026, 4.16841, 4.16688, 4.165657, 4.16467, 4.16381, 4.16302, 4.16223, 4.1618, 4.16121, 4.16081]",3051.58,3.6,3.7
99,0.5,1,25,"[0.0, 26.7167, 60.7683, 95.7691, 131.594, 168.157, 207.171, 250.594, 302.099, 349.515]","[4.17999, 4.17546, 4.17239, 4.17003, 4.16837, 4.16688, 4.1657, 4.16463, 4.16369, 4.16294, 4.16231, 4.1618, 4.16105, 4.16074]",3050.37,3.6,3.7
100,0.5,1,25,"[0.0, 31.0397, 64.6198, 99.3782, 135.375, 171.516, 211.014, 254.536, 305.551, 349.418]","[4.180068, 4.1755, 4.17251, 4.17019, 4.16841, 4.16684, 4.1657, 4.16479, 4.16381, 4.16306, 4.162271, 4.16184, 4.16113, 4.16066]",3049.33,3.6,3.7
101,0.5,1,25,"[0.0, 28.4354, 62.3717, 97.4544, 132.986, 169.913, 208.87, 252.067, 303.115, 349.438]","[4.17999, 4.1753, 4.17227, 4.17011, 4.16833, 4.16696, 4.165657, 4.16455, 4.16369, 4.16298, 4.16223, 4.16164, 4.16109, 4.16066]",3047.99,3.6,3.7
102,0.5,1,25,"[0.0, 27.4081, 61.5197, 96.6999, 131.777, 169.05, 207.69, 250.985, 301.956, 349.656]","[4.17999, 4.175343, 4.17231, 4.16995, 4.1683, 4.16676, 4.16558, 4.16455, 4.16369, 4.16294, 4.16219, 4.16172, 4.16113, 4.1605]",3046.89,3.6,3.7
103,0.5,1,25,"[0.0, 26.2036, 60.222, 95.2701, 130.766, 167.28, 206.087, 249.68, 300.394, 349.702]","[4.17999, 4.175343, 4.17235, 4.17011, 4.16822, 4.16672, 4.165657, 4.16455, 4.16357, 4.1629, 4.16223, 4.16156, 4.16105, 4.16054]",3045.69,3.6,3.7
104,0.5,1,25,"[0.0, 22.174, 55.9738, 90.5752, 126.385, 163.197, 202.104, 245.06, 295.775, 349.42]","[4.17999, 4.17523, 4.17211, 4.16999, 4.16826, 4.16672, 4.16558, 4.16448, 4.16377, 4.16298, 4.162, 4.16152, 4.16097, 4.16046]",3044.66,3.6,3.7
105,0.5,1,25,"[0.0, 24.3473, 57.9056, 93.0822, 128.903, 165.207, 203.884, 247.177, 297.328, 349.501]","[4.180068, 4.1753, 4.17223, 4.16991, 4.16822, 4.16672, 4.1655, 4.1644, 4.16361, 4.16278, 4.162035, 4.16152, 4.16093, 4.16042]",3043.56,3.6,3.7
106,0.5,1,25,"[0.0, 21.3494, 54.6675, 90.0645, 125.706, 161.974, 201.09, 244.288, 294.256, 348.563]","[4.17991, 4.17542, 4.17219, 4.16983, 4.16806, 4.1666, 4.165421, 4.1644, 4.16349, 4.16274, 4.16207, 4.16137, 4.16081, 4.16042]",3042.39,3.6,3.7
107,0.5,1,25,"[0.0, 18.7476, 52.486, 87.2746, 122.968, 159.526, 198.186, 241.507, 291.142, 335.002]","[4.17991, 4.175343, 4.17231, 4.16995, 4.16818, 4.16668, 4.16562, 4.16432, 4.16357, 4.16278, 4.16211, 4.16172, 4.16097, 4.1605]",3041.44,3.6,3.7
108,0.5,1,25,"[0.0, 32.2668, 65.9379, 101.216, 136.303, 172.587, 212.064, 255.053, 304.679, 349.463]","[4.179832, 4.1753, 4.17215, 4.16995, 4.168138, 4.16668, 4.16554, 4.16444, 4.16365, 4.16278, 4.16207, 4.16144, 4.16093, 4.16046]",3040.39,3.6,3.7
109,0.5,1,25,"[0.0, 31.5465, 65.2274, 100.268, 135.823, 172.33, 211.152, 254.344, 304.819, 349.476]","[4.17991, 4.17546, 4.17227, 4.17007, 4.168138, 4.1666, 4.1655, 4.16436, 4.16345, 4.162704, 4.162035, 4.16141, 4.16093, 4.16042]",3039.05,3.6,3.7
110,0.5,1,25,"[0.0, 31.0622, 65.0689, 99.9987, 135.085, 171.605, 210.703, 253.457, 302.933, 349.668]","[4.17987, 4.17542, 4.17219, 4.16999, 4.1681, 4.16676, 4.16546, 4.16444, 4.16361, 4.16266, 4.162035, 4.16144, 4.16093, 4.16038]",3037.97,3.6,3.7
111,0.5,1,25,"[0.0, 26.6827, 60.7393, 95.2901, 130.69, 167.142, 205.769, 249.609, 298.986, 349.485]","[4.17987, 4.17542, 4.17231, 4.17003, 4.1681, 4.1666, 4.165421, 4.1644, 4.16349, 4.16282, 4.16219, 4.16152, 4.160893, 4.16038]",3037.08,3.6,3.7
112,0.5,1,25,"[0.0, 24.2453, 57.953, 92.6317, 127.881, 164.654, 203.409, 245.89, 295.895, 349.161]","[4.179832, 4.1753, 4.17215, 4.16999, 4.1681, 4.16664, 4.165421, 4.16436, 4.16349, 4.16278, 4.16207, 4.16141, 4.16085, 4.16054]",3035.88,3.6,3.7
113,0.5,1,25,"[0.0, 21.9421, 55.7169, 90.2185, 125.544, 161.775, 200.562, 243.592, 293.369, 349.124]","[4.17991, 4.17519, 4.17235, 4.16991, 4.16806, 4.166563, 4.16546, 4.16436, 4.16341, 4.16266, 4.16192, 4.16133, 4.16081, 4.1603]",3034.71,3.6,3.7
114,0.5,1,25,"[0.0, 21.9098, 55.3866, 90.2999, 125.856, 161.948, 200.696, 243.53, 293.626, 349.575]","[4.179832, 4.17523, 4.17215, 4.16979, 4.16794, 4.16668, 4.16534, 4.16436, 4.16337, 4.16259, 4.16188, 4.16129, 4.16085, 4.16018]",3033.51,3.6,3.7
115,0.5,1,25,"[0.0, 20.9002, 54.3696, 89.5338, 124.778, 161.083, 200.011, 242.652, 292.367, 335.055]","[4.179832, 4.17519, 4.17208, 4.16971, 4.16798, 4.16648, 4.1653, 4.16436, 4.16341, 4.16255, 4.1618, 4.16117, 4.16074, 4.16026]",3032.27,3.6,3.7
116,0.5,1,25,"[0.0, 30.9885, 64.3626, 99.1756, 134.463, 170.666, 209.587, 252.167, 302.006, 349.37]","[4.179832, 4.17515, 4.17211, 4.16987, 4.16794, 4.16652, 4.16522, 4.16428, 4.16329, 4.16263, 4.16188, 4.16117, 4.16062, 4.16018]",3031.23,3.6,3.7
117,0.5,1,25,"[0.0, 29.7131, 63.0139, 98.0416, 133.379, 169.661, 208.33, 250.86, 300.516, 349.63]","[4.17967, 4.175107, 4.17211, 4.16975, 4.16794, 4.16644, 4.1653, 4.1642, 4.16329, 4.16263, 4.16176, 4.16113, 4.16077, 4.16022]",3030.13,3.6,3.7
118,0.5,1,25,"[0.0, 26.3799, 59.5131, 93.9554, 129.54, 166.038, 204.269, 247.079, 296.258, 348.606]","[4.17975, 4.175107, 4.17204, 4.16971, 4.16794, 4.16641, 4.16515, 4.16416, 4.16329, 4.16251, 4.1618, 4.16113, 4.16066, 4.16022]",3028.93,3.6,3.7
119,0.5,1,25,"[0.0, 28.4818, 62.3889, 97.0617, 132.7, 168.469, 206.983, 249.877, 299.234, 349.108]","[4.17987, 4.175107, 4.17215, 4.16975, 4.16798, 4.16633, 4.165185, 4.16408, 4.16318, 4.16259, 4.1618, 4.16113, 4.16062, 4.16003]",3027.94,3.6,3.7
120,0.5,1,25,"[0.0, 26.2383, 59.8371, 94.9002, 129.915, 166.486, 205.041, 247.198, 297.282, 349.369]","[4.17975, 4.175107, 4.172, 4.16967, 4.16782, 4.16644, 4.16526, 4.16416, 4.16314, 4.16243, 4.16168, 4.16113, 4.16066, 4.15999]",3026.95,3.6,3.7
121,0.5,1,25,"[0.0, 25.5812, 58.6843, 93.3332, 128.409, 164.655, 203.621, 245.804, 295.377, 348.963]","[4.17971, 4.175107, 4.171957, 4.16956, 4.16778, 4.16633, 4.16507, 4.164, 4.16314, 4.16243, 4.1616, 4.16105, 4.1605, 4.15991]",3025.65,3.6,3.7
122,0.5,1,25,"[0.0, 23.7336, 57.1728, 91.967, 127.105, 163.4, 202.019, 244.571, 293.461, 334.925]","[4.17975, 4.17503, 4.17184, 4.16952, 4.16782, 4.16633, 4.16503, 4.16396, 4.16326, 4.16231, 4.16164, 4.16093, 4.16042, 4.15995]",3024.45,3.6,3.7
123,0.5,1,25,"[0.0, 25.5164, 58.5311, 92.9321, 128.189, 164.416, 202.704, 245.506, 294.548, 349.157]","[4.17975, 4.174871, 4.17188, 4.16956, 4.1677, 4.16629, 4.16495, 4.164, 4.16306, 4.16215, 4.16156, 4.16097, 4.1603, 4.15983]",3023.14,3.6,3.7
124,0.5,1,25,"[0.0, 20.4428, 53.6016, 88.6858, 123.556, 160.038, 197.995, 240.383, 289.343, 334.461]","[4.179635, 4.17507, 4.17188, 4.16952, 4.16767, 4.16617, 4.16507, 4.16392, 4.16306, 4.16223, 4.16148, 4.160893, 4.16042, 4.15987]",3022.02,3.6,3.7
125,0.5,1,25,"[0.0, 30.2978, 63.6428, 98.1065, 133.247, 169.609, 208.183, 250.142, 299.298, 349.275]","[4.17979, 4.17491, 4.171957, 4.16975, 4.16774, 4.16625, 4.16511, 4.16408, 4.16322, 4.16231, 4.16164, 4.16101, 4.16042, 4.15995]",3021.16,3.6,3.7
126,0.5,1,25,"[0.0, 31.5825, 64.4947, 99.3036, 134.427, 170.437, 208.685, 251.205, 300.073, 348.731]","[4.179635, 4.17507, 4.17192, 4.16956, 4.16774, 4.16617, 4.165185, 4.164, 4.16314, 4.16231, 4.1616, 4.16101, 4.16038, 4.15983]",3019.95,3.6,3.7
127,0.5,1,25,"[0.0, 29.6939, 62.9311, 97.5715, 132.797, 168.891, 207.399, 249.596, 298.479, 349.338]","[4.17956, 4.174871, 4.171957, 4.16959, 4.16774, 4.16613, 4.164988, 4.163846, 4.16306, 4.16215, 4.16137, 4.16085, 4.16022, 4.15975]",3018.58,3.6,3.7
128,0.5,1,25,"[0.0, 24.1837, 57.2748, 91.7984, 126.769, 163.271, 201.481, 243.632, 292.457, 334.788]","[4.1796, 4.175107, 4.17188, 4.16956, 4.1679, 4.16625, 4.16487, 4.163846, 4.16306, 4.16219, 4.16141, 4.16093, 4.16022, 4.15979]",3017.58,3.6,3.7
129,0.5,1,25,"[0.0, 22.4291, 55.7503, 90.046, 125.229, 161.305, 199.365, 241.708, 290.622, 335.036]","[4.17967, 4.17499, 4.17188, 4.16959, 4.16782, 4.16633, 4.16507, 4.16389, 4.16322, 4.162271, 4.16168, 4.16085, 4.16038, 4.15975]",3016.76,3.6,3.7
130,0.5,1,25,"[0.0, 22.334, 55.4878, 90.3854, 125.31, 161.318, 199.878, 241.627, 290.662, 334.528]","[4.17975, 4.17499, 4.17192, 4.16979, 4.16778, 4.16625, 4.16507, 4.16396, 4.16306, 4.16223, 4.1616, 4.16085, 4.1603, 4.15987]",3015.62,3.6,3.7
131,0.5,1,25,"[0.0, 19.881, 53.0231, 87.539, 122.738, 158.639, 197.28, 238.999, 287.261, 334.897]","[4.17975, 4.17499, 4.17184, 4.16956, 4.16774, 4.16621, 4.16495, 4.16392, 4.16306, 4.16215, 4.16156, 4.16074, 4.16022, 4.15971]",3014.33,3.6,3.7
132,0.5,1,25,"[0.0, 32.1047, 64.8811, 99.4486, 134.252, 170.533, 208.487, 250.78, 299.251, 348.531]","[4.1796, 4.17483, 4.1718, 4.16948, 4.16763, 4.16613, 4.16491, 4.16381, 4.16278, 4.16196, 4.16144, 4.16062, 4.16014, 4.15963]",3012.92,3.6,3.7
133,0.5,1,25,"[0.0, 30.2513, 63.3142, 97.7457, 132.474, 169.127, 207.543, 248.937, 297.813, 348.959]","[4.179635, 4.17499, 4.1718, 4.16948, 4.16763, 4.16625, 4.16495, 4.163846, 4.16306, 4.16215, 4.16144, 4.160696, 4.16007, 4.15963]",3012.02,3.6,3.7
134,0.5,1,25,"[0.0, 27.4984, 60.7976, 95.1747, 130.065, 165.854, 204.318, 245.793, 295.183, 349.506]","[4.179635, 4.17503, 4.17188, 4.16948, 4.16755, 4.16625, 4.16503, 4.16396, 4.16294, 4.16211, 4.16141, 4.16077, 4.16018, 4.15959]",3010.94,3.6,3.7
135,0.5,1,25,"[0.0, 26.9399, 60.3207, 94.7147, 129.856, 165.779, 203.972, 245.797, 294.186, 349.173]","[4.1796, 4.17495, 4.171721, 4.1694, 4.1677, 4.16613, 4.16495, 4.16381, 4.16282, 4.16207, 4.16129, 4.160696, 4.16018, 4.15963]",3009.66,3.6,3.7
136,0.5,1,25,"[0.0, 22.508, 55.7671, 89.8352, 125.041, 160.643, 199.107, 240.817, 289.079, 334.785]","[4.1796, 4.174871, 4.1718, 4.16959, 4.1677, 4.16621, 4.16511, 4.16392, 4.16294, 4.162, 4.16152, 4.160696, 4.16014, 4.15967]",3008.41,3.6,3.7
137,0.5,1,25,"[0.0, 22.7655, 55.3946, 89.9295, 125.103, 161.144, 199.246, 240.863, 289.642, 334.269]","[4.179635, 4.17495, 4.17176, 4.16952, 4.1677, 4.16613, 4.16487, 4.16389, 4.16282, 4.16207, 4.16129, 4.16066, 4.16018, 4.15944]",3007.25,3.6,3.7
138,0.5,1,25,"[0.0, 29.9922, 63.3816, 97.8501, 132.505, 168.569, 206.871, 248.166, 296.58, 349.045]","[4.1796, 4.17491, 4.1718, 4.1694, 4.16767, 4.16613, 4.16487, 4.16373, 4.1629, 4.16219, 4.16133, 4.160696, 4.16003, 4.15951]",3006.09,3.6,3.7
139,0.5,1,25,"[0.0, 18.7519, 51.9764, 86.0122, 120.856, 156.77, 195.028, 236.612, 285.127, 334.749]","[4.17952, 4.17479, 4.17168, 4.16936, 4.16739, 4.16597, 4.16467, 4.16357, 4.162704, 4.16188, 4.16113, 4.16054, 4.15991, 4.159318]",3004.71,3.6,3.7
140,0.5,1,25,"[0.0, 27.6369, 60.7852, 94.9655, 130.283, 166.234, 203.917, 245.599, 294.237, 334.413]","[4.17956, 4.17475, 4.1716, 4.16932, 4.16755, 4.16601, 4.16475, 4.16377, 4.16282, 4.16192, 4.16133, 4.16046, 4.16003, 4.15959]",3004.07,3.6,3.7
141,0.5,1,25,"[0.0, 29.7453, 63.1192, 97.4023, 131.749, 168.069, 205.531, 247.418, 295.786, 348.625]","[4.17952, 4.17471, 4.17176, 4.16944, 4.1677, 4.16617, 4.16479, 4.16365, 4.16263, 4.162035, 4.16113, 4.16054, 4.16003, 4.15936]",3002.75,3.6,3.7
142,0.5,1,25,"[0.0, 27.7391, 60.779, 95.2465, 129.746, 165.904, 204.122, 245.332, 293.048, 334.488]","[4.17956, 4.17483, 4.1718, 4.16948, 4.16763, 4.16605, 4.16495, 4.16373, 4.16282, 4.16215, 4.16129, 4.160696, 4.16011, 4.15963]",3001.66,3.6,3.7
143,0.5,1,25,"[0.0, 26.5072, 59.7205, 94.1209, 128.867, 164.533, 202.513, 244.203, 292.191, 334.418]","[4.17956, 4.17495, 4.17164, 4.1694, 4.1677, 4.16625, 4.16483, 4.16373, 4.16282, 4.16188, 4.16125, 4.16066, 4.16003, 4.15948]",3000.33,3.6,3.7
144,0.5,1,25,"[0.0, 22.5391, 55.5155, 89.8974, 124.4, 160.24, 198.35, 239.737, 287.181, 334.553]","[4.1794, 4.17483, 4.1718, 4.1694, 4.1677, 4.16613, 4.16483, 4.16377, 4.16278, 4.162035, 4.16129, 4.16062, 4.16007, 4.15948]",2999.1,3.6,3.7
145,0.5,1,25,"[0.0, 21.2363, 53.8099, 88.2404, 122.911, 158.797, 196.854, 237.968, 285.487, 334.774]","[4.17952, 4.17479, 4.171721, 4.16952, 4.16747, 4.16597, 4.164988, 4.16373, 4.16266, 4.16196, 4.16125, 4.16058, 4.15983, 4.15948]",2997.77,3.6,3.7
146,0.5,1,25,"[0.0, 22.2478, 55.2311, 89.4256, 124.273, 159.434, 197.541, 238.876, 286.837, 334.628]","[4.1794, 4.17479, 4.1716, 4.16936, 4.167429, 4.16593, 4.16463, 4.16369, 4.162704, 4.16192, 4.16121, 4.16054, 4.15991, 4.15936]",2996.35,3.6,3.7
147,0.5,1,25,"[0.0, 20.5705, 53.2956, 86.7981, 122.567, 158.056, 195.751, 236.905, 284.842, 334.171]","[4.17936, 4.17475, 4.17168, 4.1694, 4.16747, 4.16597, 4.16483, 4.16365, 4.162704, 4.16188, 4.16117, 4.16042, 4.15995, 4.159318]",2995.09,3.6,3.7
148,0.5,1,25,"[0.0, 18.2464, 51.1609, 85.205, 119.975, 155.59, 193.546, 234.759, 281.813, 334.786]","[4.17936, 4.17463, 4.1716, 4.16932, 4.167429, 4.16593, 4.16463, 4.16353, 4.162704, 4.16196, 4.16105, 4.16046, 4.15987, 4.1594]",2993.66,3.6,3.7
149,0.5,1,25,"[0.0, 17.9535, 50.6438, 84.9172, 119.127, 155.208, 192.569, 233.886, 281.409, 334.5]","[4.17948, 4.17471, 4.1716, 4.1694, 4.16755, 4.16597, 4.16483, 4.16369, 4.16274, 4.16184, 4.16117, 4.16042, 4.15995, 4.15951]",2992.37,3.6,3.7
150,0.5,1,25,"[0.0, 27.5144, 59.8197, 94.236, 128.622, 164.345, 202.094, 243.385, 290.463, 333.969]","[4.17936, 4.17471, 4.17164, 4.16924, 4.16747, 4.16601, 4.16467, 4.16365, 4.16278, 4.16188, 4.16121, 4.16054, 4.15991, 4.159318]",2990.94,3.6,3.7
151,0.5,1,25,"[0.0, 30.0502, 62.5073, 96.4619, 131.37, 166.845, 204.157, 245.545, 293.02, 333.934]","[4.17924, 4.17475, 4.17156, 4.16932, 4.16747, 4.16597, 4.16467, 4.16353, 4.16266, 4.16188, 4.16105, 4.16058, 4.15995, 4.15928]",2989.5,3.6,3.7
152,0.5,1,25,"[0.0, 28.1585, 60.9745, 94.4915, 129.295, 164.723, 202.183, 243.696, 290.863, 334.18]","[4.17936, 4.17463, 4.17156, 4.1692, 4.16739, 4.16581, 4.16467, 4.16353, 4.16263, 4.16176, 4.16101, 4.1605, 4.15983, 4.15924]",2988.04,3.6,3.7
153,0.5,1,25,"[0.0, 24.5672, 57.423, 90.9814, 125.678, 161.269, 198.507, 239.675, 286.933, 334.259]","[4.17924, 4.17456, 4.17145, 4.16924, 4.16731, 4.16574, 4.16455, 4.16353, 4.16255, 4.16176, 4.16109, 4.16042, 4.15975, 4.15936]",2986.39,3.6,3.7
154,0.5,1,25,"[0.0, 25.7112, 57.9603, 92.1894, 126.791, 162.105, 199.702, 240.456, 288.005, 334.424]","[4.17932, 4.17483, 4.17148, 4.16924, 4.16735, 4.16589, 4.16467, 4.16353, 4.16263, 4.16172, 4.16101, 4.16046, 4.15975, 4.15928]",2985.09,3.6,3.7
155,0.5,1,25,"[0.0, 25.7074, 58.332, 92.4272, 126.65, 162.556, 199.539, 241.003, 288.017, 334.192]","[4.17928, 4.174674, 4.17148, 4.16924, 4.16739, 4.165854, 4.16459, 4.16353, 4.162468, 4.16176, 4.16101, 4.16034, 4.15979, 4.159121]",2983.43,3.6,3.7
156,0.5,1,25,"[0.0, 22.8743, 55.31, 89.0084, 123.911, 159.18, 196.911, 238.062, 284.728, 334.385]","[4.17924, 4.17444, 4.17145, 4.1692, 4.16727, 4.16574, 4.16444, 4.16345, 4.16243, 4.16164, 4.16093, 4.16018, 4.15959, 4.15924]",2981.99,3.6,3.7
157,0.5,1,25,"[0.0, 22.5278, 54.7166, 88.7632, 123.421, 158.96, 196.548, 237.082, 284.646, 334.404]","[4.17916, 4.17448, 4.17133, 4.16912, 4.16711, 4.16574, 4.16436, 4.16345, 4.16239, 4.1616, 4.16081, 4.16018, 4.15963, 4.15908]",2980.49,3.6,3.7
158,0.5,1,25,"[0.0, 22.6683, 55.3987, 89.105, 123.432, 158.796, 196.148, 237.125, 283.971, 333.876]","[4.17928, 4.17456, 4.17148, 4.169004, 4.167232, 4.1657, 4.16448, 4.16333, 4.162468, 4.16164, 4.16093, 4.16038, 4.15963, 4.15908]",2979.14,3.6,3.7
159,0.5,1,25,"[0.0, 20.643, 53.1788, 86.939, 121.147, 156.814, 193.977, 235.143, 281.688, 334.223]","[4.1792, 4.17452, 4.17141, 4.169004, 4.167232, 4.1657, 4.16452, 4.16345, 4.16255, 4.16168, 4.16093, 4.16022, 4.15963, 4.159121]",2977.47,3.6,3.7
160,0.5,1,25,"[0.0, 19.947, 52.1636, 86.1153, 120.232, 155.918, 193.544, 234.059, 281.075, 334.003]","[4.1792, 4.17448, 4.17133, 4.16912, 4.16715, 4.1657, 4.16444, 4.16329, 4.162271, 4.16152, 4.16074, 4.16011, 4.15951, 4.15896]",2975.73,3.6,3.7
161,0.5,1,25,"[0.0, 18.4109, 50.544, 84.3409, 119.1, 154.577, 191.65, 232.572, 279.194, 319.555]","[4.17916, 4.17448, 4.17141, 4.169004, 4.16715, 4.16562, 4.16428, 4.16337, 4.16235, 4.16148, 4.160696, 4.16011, 4.15948, 4.15904]",2974.02,3.6,3.7
162,0.5,1,25,"[0.0, 17.7234, 50.1323, 83.5398, 118.104, 153.735, 191.072, 231.343, 278.689, 319.388]","[4.17924, 4.17452, 4.17133, 4.16904, 4.16711, 4.1657, 4.16444, 4.16333, 4.16239, 4.16148, 4.16074, 4.16011, 4.15963, 4.159]",2972.44,3.6,3.7
163,0.5,1,25,"[0.0, 27.6365, 60.3116, 93.938, 127.559, 163.46, 200.865, 241.739, 288.032, 333.171]","[4.17901, 4.17432, 4.17121, 4.168807, 4.16692, 4.16546, 4.16416, 4.16326, 4.16211, 4.16137, 4.16062, 4.15995, 4.15924, 4.15881]",2970.4,3.6,3.7
164,0.5,1,25,"[0.0, 29.9508, 62.1398, 95.911, 130.223, 165.293, 202.969, 243.643, 290.654, 333.489]","[4.17916, 4.1744, 4.17141, 4.16889, 4.16707, 4.16558, 4.16428, 4.16318, 4.162271, 4.16141, 4.160696, 4.15991, 4.15948, 4.15892]",2969.03,3.6,3.7
165,0.5,1,25,"[0.0, 27.7715, 59.9475, 93.453, 127.915, 163.245, 199.867, 241.082, 287.913, 333.034]","[4.17912, 4.17448, 4.17129, 4.16896, 4.16707, 4.16554, 4.16424, 4.16314, 4.16235, 4.16152, 4.16074, 4.16003, 4.15951, 4.158885]",2967.58,3.6,3.7
166,0.5,1,25,"[0.0, 30.0551, 62.1482, 95.9366, 130.172, 165.276, 202.72, 243.308, 289.807, 332.941]","[4.17904, 4.17432, 4.17125, 4.168807, 4.16704, 4.16562, 4.16428, 4.1631, 4.162271, 4.16133, 4.16058, 4.15999, 4.15948, 4.15885]",2965.76,3.6,3.7
167,0.5,1,25,"[0.0, 26.0773, 57.9161, 91.6219, 125.903, 161.079, 198.091, 239.057, 285.14, 333.136]","[4.17897, 4.17424, 4.17101, 4.16873, 4.16688, 4.165421, 4.16404, 4.16298, 4.16192, 4.16113, 4.1605, 4.15963, 4.159121, 4.15865]",2963.76,3.6,3.7
168,0.5,1,25,"[0.0, 25.3538, 57.5881, 90.5381, 124.903, 160.001, 197.124, 237.836, 283.692, 332.988]","[4.17904, 4.1744, 4.17109, 4.16889, 4.16696, 4.16538, 4.1642, 4.16306, 4.16207, 4.16121, 4.16042, 4.15979, 4.15924, 4.15877]",2962.19,3.6,3.7
169,0.5,1,25,"[0.0, 26.5389, 58.9588, 91.9256, 126.469, 161.42, 198.453, 238.743, 285.105, 332.557]","[4.17904, 4.1742, 4.17113, 4.16873, 4.16696, 4.16546, 4.16408, 4.16306, 4.16219, 4.16129, 4.16046, 4.15991, 4.15936, 4.15865]",2960.71,3.6,3.7
170,0.5,1,25,"[0.0, 24.8614, 56.6279, 89.9879, 124.265, 159.205, 196.842, 237.118, 283.17, 333.368]","[4.17893, 4.17424, 4.17105, 4.16869, 4.16684, 4.1653, 4.16408, 4.16294, 4.162035, 4.16117, 4.16034, 4.15983, 4.15924, 4.15861]",2959,3.6,3.7
171,0.5,1,25,"[0.0, 26.7662, 58.9661, 92.3085, 126.061, 161.374, 198.391, 239.045, 285.477, 332.939]","[4.17885, 4.1742, 4.17093, 4.16873, 4.16684, 4.165185, 4.16412, 4.16286, 4.162035, 4.16101, 4.16042, 4.15975, 4.15916, 4.15849]",2957.46,3.6,3.7
172,0.5,1,25,"[0.0, 25.184, 56.8992, 90.1752, 124.797, 159.518, 196.902, 237.256, 283.294, 333.421]","[4.17897, 4.1742, 4.17105, 4.168807, 4.1668, 4.1653, 4.16408, 4.16294, 4.16207, 4.16109, 4.16046, 4.15963, 4.159121, 4.15849]",2955.91,3.6,3.7
173,0.5,1,25,"[0.0, 27.5275, 59.1829, 92.4747, 126.831, 161.453, 199.025, 239.268, 285.221, 332.895]","[4.17901, 4.174, 4.170815, 4.16853, 4.16684, 4.16526, 4.16396, 4.16286, 4.16176, 4.16101, 4.16034, 4.15963, 4.15908, 4.158452]",2954.04,3.6,3.7
174,0.5,1,25,"[0.0, 26.3576, 58.1738, 91.3283, 125.634, 160.825, 197.424, 237.907, 283.743, 332.872]","[4.17889, 4.17412, 4.17101, 4.16853, 4.16692, 4.16515, 4.16389, 4.16278, 4.16184, 4.16113, 4.16034, 4.15951, 4.15896, 4.15849]",2952.56,3.6,3.7
175,0.5,1,25,"[0.0, 26.3218, 57.8298, 91.4055, 125.379, 160.545, 197.115, 237.692, 283.543, 333.093]","[4.17901, 4.17416, 4.17109, 4.16861, 4.16672, 4.16534, 4.163846, 4.16282, 4.16192, 4.16101, 4.16026, 4.15951, 4.15904, 4.15849]",2950.96,3.6,3.7
176,0.5,1,25,"[0.0, 25.9803, 57.6069, 90.8068, 125.007, 160.154, 196.873, 237.218, 282.315, 332.85]","[4.17881, 4.1742, 4.17097, 4.16865, 4.16672, 4.16522, 4.16392, 4.16282, 4.16192, 4.16105, 4.16022, 4.15963, 4.15896, 4.15849]",2949.24,3.6,3.7
177,0.5,1,25,"[0.0, 22.9666, 54.4174, 87.5825, 122.015, 156.921, 193.867, 234.127, 279.695, 332.622]","[4.17893, 4.17416, 4.17089, 4.16849, 4.16672, 4.16534, 4.16381, 4.16282, 4.1618, 4.16093, 4.1603, 4.15963, 4.15904, 4.15833]",2947.36,3.6,3.7
178,0.5,1,25,"[0.0, 23.2715, 54.941, 87.8245, 122.461, 157.32, 194.071, 234.199, 280.195, 318.189]","[4.17869, 4.17393, 4.17085, 4.16853, 4.16652, 4.16507, 4.16377, 4.16251, 4.16172, 4.16081, 4.16003, 4.15951, 4.15885, 4.15826]",2945.26,3.6,3.7
179,0.5,1,25,"[0.0, 23.0079, 54.4644, 87.6318, 121.649, 156.789, 193.491, 233.652, 279.145, 318.307]","[4.17865, 4.174, 4.17093, 4.16849, 4.1666, 4.16515, 4.163846, 4.16278, 4.16184, 4.16097, 4.16018, 4.15963, 4.159, 4.15833]",2943.78,3.6,3.7
180,0.5,1,25,"[0.0, 21.3158, 52.701, 85.5199, 119.465, 154.239, 191.679, 231.616, 277.571, 318.444]","[4.17873, 4.173965, 4.17066, 4.16833, 4.16648, 4.16495, 4.16369, 4.16263, 4.16172, 4.16077, 4.16003, 4.1594, 4.15873, 4.15826]",2941.73,3.6,3.7
181,0.5,1,25,"[0.0, 21.4472, 52.8983, 85.7752, 119.924, 155.149, 191.579, 231.509, 276.915, 318.345]","[4.17869, 4.173965, 4.17078, 4.16841, 4.16652, 4.16507, 4.16369, 4.16255, 4.16152, 4.16081, 4.16003, 4.15928, 4.15865, 4.15814]",2939.83,3.6,3.7
182,0.5,1,25,"[0.0, 17.4871, 48.9698, 81.8102, 116.063, 150.948, 187.156, 227.242, 272.623, 318.489]","[4.17877, 4.17381, 4.1707, 4.1683, 4.16648, 4.16503, 4.16365, 4.162468, 4.16156, 4.16093, 4.16007, 4.1594, 4.15877, 4.15818]",2938.08,3.6,3.7
183,0.5,1,25,"[0.0, 29.1543, 60.4358, 93.5046, 126.938, 162.588, 199.15, 239.328, 284.849, 332.085]","[4.17869, 4.17393, 4.170815, 4.16837, 4.16641, 4.16483, 4.16365, 4.16243, 4.16156, 4.16074, 4.15995, 4.15916, 4.15853, 4.15814]",2936.31,3.6,3.7
184,0.5,1,25,"[0.0, 17.295, 48.7209, 81.9458, 115.618, 150.628, 187.099, 226.933, 272.275, 318.162]","[4.17869, 4.17404, 4.1707, 4.16845, 4.1666, 4.16503, 4.16365, 4.16259, 4.16156, 4.16074, 4.16003, 4.15936, 4.15881, 4.15814]",2934.69,3.6,3.7
185,0.5,1,25,"[0.0, 29.4154, 60.8976, 94.0441, 127.858, 162.621, 199.028, 239.428, 284.48, 331.981]","[4.17865, 4.17393, 4.17078, 4.1683, 4.16644, 4.16487, 4.16365, 4.16255, 4.16148, 4.16054, 4.15995, 4.15944, 4.15861, 4.15806]",2933.35,3.6,3.7
186,0.5,1,25,"[0.0, 28.7478, 59.9513, 92.8046, 126.578, 161.641, 198.26, 237.952, 283.446, 331.515]","[4.17865, 4.17381, 4.17074, 4.1683, 4.16644, 4.16483, 4.16349, 4.162468, 4.16141, 4.16058, 4.15979, 4.15916, 4.15853, 4.15794]",2931.81,3.6,3.7
187,0.5,1,25,"[0.0, 29.3085, 60.4796, 93.3115, 127.24, 162.113, 198.505, 238.332, 283.975, 331.343]","[4.17861, 4.173965, 4.17078, 4.16841, 4.16641, 4.16487, 4.16353, 4.16243, 4.16141, 4.16066, 4.15983, 4.1592, 4.15857, 4.15802]",2930.24,3.6,3.7
188,0.5,1,25,"[0.0, 26.9389, 58.121, 90.8571, 124.767, 159.724, 196.308, 236.097, 281.581, 331.946]","[4.17857, 4.17369, 4.17066, 4.16822, 4.16629, 4.16491, 4.16353, 4.16235, 4.16129, 4.1605, 4.15983, 4.159, 4.15841, 4.15794]",2928.55,3.6,3.7
189,0.5,1,25,"[0.0, 22.2982, 53.3737, 85.8333, 119.918, 154.716, 190.8, 230.413, 275.569, 317.401]","[4.17849, 4.17361, 4.17042, 4.1681, 4.16613, 4.16448, 4.16329, 4.16219, 4.16113, 4.16038, 4.15959, 4.158885, 4.15826, 4.1577]",2926.29,3.6,3.7
190,0.5,1,25,"[0.0, 25.0397, 56.0455, 89.0489, 122.705, 157.113, 193.645, 232.881, 277.842, 317.218]","[4.17849, 4.17357, 4.17046, 4.16798, 4.16613, 4.16467, 4.16337, 4.16207, 4.16109, 4.1603, 4.15951, 4.15881, 4.15829, 4.1577]",2924.86,3.6,3.7
191,0.5,1,25,"[0.0, 23.7879, 55.0115, 87.4885, 121.506, 156.104, 192.208, 231.983, 276.55, 317.486]","[4.17869, 4.17385, 4.17046, 4.1681, 4.16613, 4.16467, 4.16345, 4.16231, 4.16121, 4.16046, 4.15955, 4.15885, 4.15833, 4.15759]",2923.55,3.6,3.7
192,0.5,1,25,"[0.0, 20.7463, 51.7415, 83.9649, 118.096, 152.684, 188.938, 228.24, 273.333, 317.7]","[4.17849, 4.17369, 4.170382, 4.16806, 4.16613, 4.16459, 4.16322, 4.16231, 4.16121, 4.1603, 4.15963, 4.15885, 4.15822, 4.1577]",2922.09,3.6,3.7
193,0.5,1,25,"[0.0, 30.0102, 61.0763, 93.723, 126.787, 161.427, 197.858, 237.466, 282.193, 331.126]","[4.17853, 4.17369, 4.1705, 4.168138, 4.16621, 4.16479, 4.16322, 4.16239, 4.16125, 4.1603, 4.15951, 4.15892, 4.15833, 4.157743]",2920.51,3.6,3.7