File: dataset/NCM/V3.6-3.7/CY35-05_1-#1.csv
Cycle,Charge_Current,Discharge_Current,Temperature,Capacity_Increment,Relaxation_Voltage,Discharge_Capacity,Start_Voltage,End_Voltage
2,0.5,1,35,"[0.0, 32.3705, 70.7456, 108.138, 146.081, 187.193, 230.76, 281.736, 337.135, 393.789]","[4.18538, 4.18223, 4.17983, 4.17802, 4.1768, 4.17558, 4.17467, 4.17381, 4.17306, 4.172545, 4.17184, 4.17152, 4.17089, 4.17038]",3206.96,3.6,3.7
8,0.5,1,35,"[0.0, 32.0275, 69.866, 107.423, 145.147, 185.108, 227.988, 276.455, 330.888, 379.235]","[4.18444, 4.18093, 4.17857, 4.17656, 4.17518, 4.17408, 4.17298, 4.17227, 4.17144, 4.17073, 4.17018, 4.16971, 4.169395, 4.16884]",3166.89,3.6,3.7
14,0.5,1,35,"[0.0, 26.3772, 63.3696, 101.063, 138.304, 177.606, 219.249, 267.34, 320.914, 364.595]","[4.18444, 4.18085, 4.17845, 4.17656, 4.17522, 4.17384, 4.17294, 4.172112, 4.17132, 4.17069, 4.1701, 4.16959, 4.16924, 4.16877]",3148.99,3.6,3.7
20,0.5,1,35,"[0.0, 24.0667, 61.6271, 98.5675, 135.805, 174.705, 216.021, 262.909, 315.919, 364.6]","[4.18416, 4.18054, 4.17825, 4.176168, 4.17487, 4.17361, 4.17266, 4.17176, 4.17093, 4.17034, 4.16979, 4.169395, 4.1688, 4.16845]",3132.37,3.6,3.7
26,0.5,1,35,"[0.0, 33.5958, 70.6331, 107.472, 144.576, 182.932, 224.19, 270.307, 323.32, 364.54]","[4.18404, 4.18058, 4.177979, 4.176168, 4.174829, 4.17353, 4.17243, 4.17164, 4.17097, 4.1705, 4.16983, 4.16936, 4.16877, 4.16841]",3117.9,3.6,3.7
32,0.5,1,35,"[0.0, 30.0835, 67.0365, 103.74, 140.954, 179.06, 219.788, 264.87, 317.317, 364.544]","[4.184, 4.18034, 4.17782, 4.17605, 4.17447, 4.17341, 4.17243, 4.17136, 4.17069, 4.17014, 4.169395, 4.1688, 4.16853, 4.16813]",3105,3.6,3.7
38,0.5,1,35,"[0.0, 24.8311, 61.5883, 98.4166, 135.459, 173.819, 213.942, 258.996, 310.668, 364.513]","[4.18377, 4.18007, 4.17766, 4.17577, 4.1742, 4.1731, 4.17219, 4.17129, 4.1705, 4.16995, 4.16936, 4.1688, 4.16829, 4.16794]",3092.6,3.6,3.7
44,0.5,1,35,"[0.0, 31.1005, 67.3322, 104.144, 141.437, 179.104, 218.884, 263.005, 314.527, 364.537]","[4.18396, 4.18007, 4.17778, 4.17585, 4.17447, 4.173254, 4.17215, 4.17144, 4.17077, 4.17002, 4.169395, 4.16892, 4.16849, 4.168056]",3081.88,3.6,3.7
50,0.5,1,35,"[0.0, 33.7471, 69.7802, 106.342, 142.754, 180.928, 220.815, 264.686, 315.035, 364.553]","[4.18381, 4.180263, 4.17782, 4.17585, 4.17447, 4.173254, 4.17227, 4.17152, 4.17073, 4.17018, 4.16947, 4.169, 4.16857, 4.16802]",3072.37,3.6,3.7
58,0.5,1,35,"[0.0, 25.3849, 61.3188, 97.779, 134.925, 172.315, 211.904, 255.089, 305.014, 350.029]","[4.18365, 4.18003, 4.17766, 4.1757, 4.17416, 4.17294, 4.17199, 4.17121, 4.17038, 4.16975, 4.16916, 4.16865, 4.16817, 4.16774]",3059.3,3.6,3.7
64,0.5,1,35,"[0.0, 20.9447, 56.7044, 93.1686, 129.533, 167.506, 206.576, 249.449, 299.229, 350.036]","[4.18381, 4.17991, 4.17766, 4.17554, 4.1742, 4.17294, 4.17195, 4.17101, 4.17042, 4.16967, 4.16912, 4.16857, 4.168056, 4.1677]",3050.55,3.6,3.7
70,0.5,1,35,"[0.0, 33.9594, 69.2711, 105.65, 142.425, 179.587, 219.154, 261.851, 310.94, 364.537]","[4.183413, 4.17979, 4.17723, 4.17522, 4.17381, 4.17262, 4.17152, 4.17073, 4.17002, 4.16928, 4.16873, 4.16817, 4.16778, 4.16735]",3042.28,3.6,3.7
76,0.5,1,35,"[0.0, 29.4207, 65.0856, 101.219, 137.444, 174.676, 213.849, 255.912, 305.362, 349.946]","[4.183413, 4.17971, 4.17715, 4.1753, 4.173687, 4.17243, 4.17152, 4.17069, 4.16987, 4.16932, 4.16861, 4.1681, 4.16778, 4.16723]",3034.9,3.6,3.7
82,0.5,1,35,"[0.0, 23.0674, 57.8585, 94.7521, 130.642, 167.883, 206.975, 249.119, 297.637, 349.877]","[4.183177, 4.17944, 4.17688, 4.17495, 4.17345, 4.172348, 4.17129, 4.1705, 4.16947, 4.1688, 4.16841, 4.16778, 4.16739, 4.1668]",3027.47,3.6,3.7
88,0.5,1,35,"[0.0, 21.6397, 56.7384, 92.6938, 129.239, 166.242, 204.995, 247.247, 295.004, 335.352]","[4.18333, 4.1794, 4.17692, 4.17499, 4.17349, 4.17231, 4.17121, 4.17034, 4.16975, 4.169, 4.16837, 4.1679, 4.16739, 4.166914]",3020.79,3.6,3.7
94,0.5,1,35,"[0.0, 33.3646, 69.0202, 104.937, 141.26, 178.366, 217.316, 258.792, 306.687, 349.78]","[4.183177, 4.17944, 4.17668, 4.17471, 4.17345, 4.17207, 4.17105, 4.17006, 4.16943, 4.16873, 4.16821, 4.16758, 4.16707, 4.166678]",3014.16,3.6,3.7
100,0.5,1,35,"[0.0, 28.196, 63.3014, 99.2013, 135.557, 172.478, 211.055, 252.893, 300.43, 349.905]","[4.18306, 4.17924, 4.17664, 4.174829, 4.173254, 4.17203, 4.17117, 4.1703, 4.16916, 4.16865, 4.16798, 4.16754, 4.16711, 4.16664]",3007.76,3.6,3.7
108,0.5,1,35,"[0.0, 23.3457, 58.4879, 94.4433, 130.65, 167.576, 206.458, 247.111, 294.36, 335.339]","[4.1829, 4.17904, 4.17656, 4.17459, 4.1731, 4.17184, 4.17073, 4.16991, 4.16908, 4.16841, 4.16774, 4.16723, 4.16664, 4.16628]",3000.34,3.6,3.7
114,0.5,1,35,"[0.0, 33.1164, 67.9889, 103.65, 140.269, 176.316, 214.954, 256.041, 303.055, 349.789]","[4.18266, 4.17885, 4.17629, 4.17447, 4.17294, 4.17156, 4.17046, 4.16975, 4.16892, 4.16817, 4.16762, 4.16703, 4.16644, 4.16601]",2993.93,3.6,3.7
120,0.5,1,35,"[0.0, 32.0528, 66.9684, 103.13, 138.953, 175.386, 213.381, 254.453, 301.155, 349.699]","[4.18266, 4.178885, 4.17636, 4.174396, 4.17266, 4.17164, 4.17062, 4.16959, 4.16877, 4.168056, 4.16754, 4.166914, 4.16652, 4.16621]",2988.31,3.6,3.7
126,0.5,1,35,"[0.0, 29.5511, 64.4717, 99.6877, 136.015, 172.222, 210.573, 251.258, 297.559, 349.573]","[4.18274, 4.17896, 4.176404, 4.174396, 4.1727, 4.17156, 4.1703, 4.16947, 4.16873, 4.16802, 4.16731, 4.16676, 4.1664, 4.16601]",2982.96,3.6,3.7
132,0.5,1,35,"[0.0, 26.271, 60.9653, 96.6088, 132.427, 169.038, 206.66, 247.886, 293.964, 335.183]","[4.18274, 4.17885, 4.17621, 4.17432, 4.172545, 4.17148, 4.17034, 4.16955, 4.16869, 4.1681, 4.16739, 4.166914, 4.16632, 4.16593]",2978.26,3.6,3.7
138,0.5,1,35,"[0.0, 24.1536, 59.0265, 94.2915, 130.631, 166.906, 204.661, 245.483, 291.33, 335.184]","[4.18255, 4.17865, 4.17609, 4.17404, 4.17251, 4.17117, 4.17014, 4.16928, 4.16845, 4.1677, 4.16711, 4.16664, 4.166048, 4.16569]",2972.99,3.6,3.7
144,0.5,1,35,"[0.0, 22.3271, 56.4167, 92.3145, 128.133, 164.483, 202.64, 243.047, 288.554, 335.12]","[4.18219, 4.17833, 4.17562, 4.17381, 4.172112, 4.17089, 4.16971, 4.1688, 4.16794, 4.16723, 4.16676, 4.16613, 4.16561, 4.16522]",2967.35,3.6,3.7
150,0.5,1,35,"[0.0, 18.8746, 53.7504, 89.1629, 125.041, 161.594, 199.127, 239.247, 284.274, 335.087]","[4.18231, 4.17841, 4.17577, 4.17384, 4.172112, 4.17097, 4.16979, 4.16892, 4.168056, 4.1675, 4.166914, 4.16621, 4.16565, 4.1653]",2963.09,3.6,3.7
158,0.5,1,35,"[0.0, 29.0811, 63.3134, 98.5798, 134.117, 170.65, 208.408, 248.377, 293.692, 334.77]","[4.18223, 4.17825, 4.17562, 4.173687, 4.172112, 4.17085, 4.16967, 4.16877, 4.16802, 4.16723, 4.16664, 4.16613, 4.16565, 4.16502]",2957.25,3.6,3.7
164,0.5,1,35,"[0.0, 23.9433, 58.4491, 93.7419, 129.06, 165.624, 203.276, 243.124, 288.073, 335.049]","[4.18207, 4.17818, 4.17546, 4.17361, 4.17203, 4.17069, 4.16959, 4.16857, 4.1679, 4.16719, 4.16656, 4.16585, 4.16538, 4.16498]",2952.42,3.6,3.7
170,0.5,1,35,"[0.0, 26.3048, 60.8515, 95.9875, 131.521, 167.974, 205.073, 245.095, 289.405, 334.86]","[4.181838, 4.177979, 4.17522, 4.17321, 4.1716, 4.17042, 4.16928, 4.16833, 4.1675, 4.1668, 4.16632, 4.16561, 4.16506, 4.16471]",2948.15,3.6,3.7
176,0.5,1,35,"[0.0, 20.0969, 53.9656, 89.5789, 124.923, 160.831, 198.462, 238.497, 282.387, 320.584]","[4.18196, 4.17802, 4.1753, 4.17333, 4.17164, 4.17038, 4.16924, 4.16845, 4.16762, 4.16687, 4.16628, 4.16569, 4.16506, 4.16471]",2943.53,3.6,3.7
182,0.5,1,35,"[0.0, 30.9938, 64.8992, 99.7816, 135.278, 171.585, 209.004, 249.066, 292.909, 334.883]","[4.18196, 4.17786, 4.175065, 4.1731, 4.17152, 4.17018, 4.16908, 4.16821, 4.16723, 4.1666, 4.16597, 4.165339, 4.16491, 4.16435]",2938.74,3.6,3.7
188,0.5,1,35,"[0.0, 30.8668, 64.7267, 99.7674, 135.798, 171.547, 208.924, 247.856, 291.809, 335.161]","[4.18192, 4.17782, 4.17514, 4.17318, 4.17144, 4.17014, 4.16888, 4.16798, 4.16727, 4.16652, 4.16593, 4.165339, 4.16479, 4.16432]",2934.49,3.6,3.7
194,0.5,1,35,"[0.0, 28.561, 62.2025, 97.2955, 132.458, 168.096, 205.331, 245.305, 288.926, 334.763]","[4.18168, 4.1777, 4.17487, 4.17286, 4.17129, 4.16995, 4.16884, 4.16786, 4.16707, 4.1664, 4.16565, 4.16506, 4.16455, 4.16404]",2930.51,3.6,3.7
200,0.5,1,35,"[0.0, 27.2384, 60.943, 95.8583, 131.508, 167.307, 204.39, 243.676, 287.577, 335.075]","[4.18164, 4.17759, 4.17487, 4.1729, 4.17125, 4.16975, 4.1688, 4.1677, 4.16687, 4.16621, 4.16558, 4.16491, 4.16439, 4.16392]",2926.4,3.6,3.7
208,0.5,1,35,"[0.0, 20.3224, 54.0067, 89.081, 124.559, 160.054, 197.563, 236.495, 279.947, 320.191]","[4.18144, 4.17727, 4.17463, 4.17251, 4.17089, 4.16971, 4.16837, 4.16762, 4.16664, 4.16585, 4.16514, 4.16471, 4.16416, 4.163528]",2921.13,3.6,3.7
214,0.5,1,35,"[0.0, 18.881, 52.3995, 87.6177, 123.079, 159.149, 196.195, 235.427, 278.85, 320.452]","[4.18137, 4.17727, 4.17459, 4.17231, 4.17069, 4.16947, 4.16845, 4.16731, 4.166481, 4.16577, 4.16522, 4.16455, 4.16392, 4.16357]",2916.66,3.6,3.7
220,0.5,1,35,"[0.0, 28.8764, 62.446, 96.7692, 132.527, 168.277, 205.043, 244.207, 287.051, 335.064]","[4.18141, 4.17739, 4.17455, 4.17251, 4.17101, 4.16955, 4.16837, 4.16739, 4.16656, 4.16577, 4.16526, 4.16459, 4.16404, 4.163528]",2913.05,3.6,3.7
226,0.5,1,35,"[0.0, 28.7542, 62.7101, 97.3259, 132.584, 168.451, 204.737, 243.428, 286.332, 320.459]","[4.18117, 4.17707, 4.17428, 4.17215, 4.17062, 4.16928, 4.16798, 4.16711, 4.16628, 4.1655, 4.16495, 4.16424, 4.1638, 4.16321]",2908.92,3.6,3.7
232,0.5,1,35,"[0.0, 25.8845, 59.1787, 94.4699, 129.361, 165.318, 201.828, 240.359, 283.76, 319.908]","[4.18105, 4.17703, 4.17428, 4.17227, 4.17046, 4.16916, 4.16782, 4.16703, 4.16628, 4.165339, 4.16475, 4.16408, 4.16365, 4.16298]",2905.11,3.6,3.7
238,0.5,1,35,"[0.0, 24.4189, 57.4128, 91.9282, 127.459, 163.09, 200.135, 238.96, 281.339, 319.956]","[4.18117, 4.1768, 4.17416, 4.17215, 4.17046, 4.169, 4.16786, 4.166914, 4.16609, 4.165339, 4.16455, 4.16396, 4.16349, 4.16294]",2901.62,3.6,3.7
244,0.5,1,35,"[0.0, 21.9682, 55.6338, 89.511, 125.035, 160.427, 196.757, 236.174, 278.073, 319.67]","[4.18081, 4.1768, 4.17408, 4.17195, 4.17018, 4.16877, 4.16774, 4.1668, 4.16581, 4.165103, 4.16439, 4.16396, 4.16337, 4.1629]",2897.84,3.6,3.7
250,0.5,1,35,"[0.0, 21.8515, 55.0213, 89.5492, 124.192, 160.511, 196.705, 235.875, 277.07, 319.737]","[4.18085, 4.17668, 4.174, 4.1718, 4.17038, 4.16873, 4.16758, 4.16656, 4.16569, 4.165103, 4.16435, 4.163764, 4.16309, 4.16278]",2894.61,3.6,3.7
258,0.5,1,35,"[0.0, 27.4054, 60.6607, 95.6128, 130.155, 166.171, 202.443, 240.873, 283.135, 319.833]","[4.18085, 4.17668, 4.17384, 4.17176, 4.17002, 4.16865, 4.16754, 4.16652, 4.16569, 4.16491, 4.164197, 4.16345, 4.16294, 4.16239]",2890.42,3.6,3.7
264,0.5,1,35,"[0.0, 27.4076, 60.7419, 94.626, 129.837, 165.124, 201.959, 240.169, 281.773, 320.049]","[4.18074, 4.17644, 4.17377, 4.1716, 4.16991, 4.16853, 4.16727, 4.16632, 4.1653, 4.16467, 4.16392, 4.16345, 4.16298, 4.162425]",2886.31,3.6,3.7
270,0.5,1,35,"[0.0, 25.6876, 58.4846, 93.0911, 128.259, 163.553, 199.722, 237.869, 280.031, 320.226]","[4.18078, 4.17652, 4.173687, 4.17152, 4.16999, 4.16849, 4.16739, 4.166245, 4.1655, 4.16479, 4.164, 4.16337, 4.16298, 4.16239]",2882.88,3.6,3.7
276,0.5,1,35,"[0.0, 23.9348, 56.7374, 91.3182, 126.216, 161.89, 198.044, 235.806, 277.581, 320.14]","[4.18062, 4.17636, 4.17373, 4.17148, 4.16979, 4.16833, 4.16711, 4.16597, 4.16514, 4.16455, 4.163764, 4.16321, 4.16258, 4.162189]",2879.29,3.6,3.7
282,0.5,1,35,"[0.0, 20.9734, 53.7508, 87.3075, 123.022, 158.664, 194.46, 232.557, 274.515, 319.44]","[4.18058, 4.17636, 4.17341, 4.17129, 4.169631, 4.16821, 4.166914, 4.16597, 4.165103, 4.16432, 4.16369, 4.16317, 4.16254, 4.16207]",2875.87,3.6,3.7
288,0.5,1,35,"[0.0, 20.4591, 53.2268, 87.4624, 121.922, 157.365, 193.787, 232.314, 273.259, 305.461]","[4.180263, 4.176168, 4.173254, 4.17109, 4.16932, 4.16794, 4.16672, 4.16573, 4.16475, 4.16412, 4.16329, 4.16286, 4.16211, 4.16164]",2872.36,3.6,3.7
294,0.5,1,35,"[0.0, 30.3325, 63.3969, 97.5724, 131.682, 167.506, 203.713, 241.82, 282.71, 319.176]","[4.1803, 4.17601, 4.1731, 4.17097, 4.16932, 4.16794, 4.166678, 4.16569, 4.16479, 4.16408, 4.16337, 4.16266, 4.16203, 4.1616]",2869.75,3.6,3.7
300,0.5,1,35,"[0.0, 19.22, 51.7015, 86.0383, 120.866, 155.822, 191.98, 229.439, 270.591, 304.751]","[4.18022, 4.17589, 4.17302, 4.17085, 4.169, 4.16782, 4.16652, 4.16561, 4.16471, 4.163764, 4.16317, 4.162425, 4.16191, 4.16144]",2865.73,3.6,3.7
308,0.5,1,35,"[0.0, 19.8224, 52.5551, 85.759, 120.867, 155.772, 192.345, 230.04, 271.076, 304.749]","[4.18003, 4.17601, 4.17294, 4.17077, 4.16896, 4.16778, 4.1664, 4.1655, 4.16455, 4.16372, 4.16302, 4.16235, 4.1618, 4.16124]",2861.88,3.6,3.7
314,0.5,1,35,"[0.0, 21.0675, 53.7346, 87.6058, 121.778, 156.99, 193.222, 231.093, 271.636, 304.661]","[4.18014, 4.17593, 4.17306, 4.17073, 4.16888, 4.1677, 4.16636, 4.16546, 4.16447, 4.16365, 4.16286, 4.16227, 4.16176, 4.1612]",2858.11,3.6,3.7
320,0.5,1,35,"[0.0, 21.4478, 54.2715, 87.8052, 122.049, 157.631, 193.392, 230.908, 272.041, 304.61]","[4.17999, 4.17585, 4.17302, 4.17062, 4.169, 4.16739, 4.16628, 4.16522, 4.16439, 4.16349, 4.16278, 4.162189, 4.16148, 4.161283]",2854.84,3.6,3.7
326,0.5,1,35,"[0.0, 20.3536, 53.0179, 87.0016, 121.412, 156.801, 192.078, 229.959, 270.716, 304.631]","[4.17967, 4.17554, 4.17266, 4.17034, 4.16857, 4.16707, 4.16585, 4.16475, 4.164, 4.16306, 4.162425, 4.16176, 4.16113, 4.16053]",2851.42,3.6,3.7
332,0.5,1,35,"[0.0, 30.488, 62.6902, 96.2381, 131.11, 165.47, 201.878, 239.101, 279.953, 318.784]","[4.17971, 4.17534, 4.17262, 4.1703, 4.16853, 4.166914, 4.16573, 4.16467, 4.16388, 4.16294, 4.16227, 4.16164, 4.161047, 4.16053]",2848.42,3.6,3.7
338,0.5,1,35,"[0.0, 25.6356, 58.0374, 90.7832, 125.264, 160.245, 196.155, 234.068, 274.946, 318.204]","[4.17948, 4.1751, 4.17223, 4.17002, 4.16817, 4.166678, 4.1655, 4.16439, 4.163528, 4.16286, 4.16191, 4.161283, 4.16069, 4.16038]",2845.15,3.6,3.7
344,0.5,1,35,"[0.0, 23.8705, 56.434, 89.9124, 124.146, 159.403, 194.966, 232.121, 272.576, 304.678]","[4.17959, 4.17514, 4.17215, 4.17006, 4.16833, 4.16676, 4.1655, 4.16443, 4.16365, 4.1627, 4.16195, 4.16148, 4.16077, 4.16034]",2842.01,3.6,3.7
350,0.5,1,35,"[0.0, 22.6703, 54.5389, 88.0232, 122.528, 157.686, 193.011, 230.443, 270.636, 304.506]","[4.17948, 4.175262, 4.17215, 4.16999, 4.1681, 4.16684, 4.16542, 4.16443, 4.16349, 4.1627, 4.16195, 4.16117, 4.16069, 4.1601]",2838.48,3.6,3.7
356,0.5,1,35,"[0.0, 22.9713, 54.5335, 88.4753, 122.772, 157.506, 193.34, 230.118, 270.664, 304.422]","[4.17928, 4.17499, 4.17203, 4.16971, 4.16798, 4.1664, 4.16538, 4.164197, 4.16325, 4.16235, 4.16156, 4.16101, 4.16046, 4.15994]",2835.28,3.6,3.7
364,0.5,1,35,"[0.0, 20.1202, 51.9768, 84.9524, 119.309, 154.045, 190.025, 227.395, 266.758, 304.234]","[4.179318, 4.17479, 4.17195, 4.16967, 4.1679, 4.16652, 4.16522, 4.16412, 4.16329, 4.16239, 4.16168, 4.161047, 4.16042, 4.159905]",2831.69,3.6,3.7
370,0.5,1,35,"[0.0, 27.2764, 59.4839, 92.3537, 126.096, 161.232, 196.821, 234.348, 273.802, 317.334]","[4.17916, 4.17447, 4.17164, 4.16959, 4.1677, 4.16613, 4.16502, 4.16392, 4.1629, 4.16207, 4.16136, 4.16077, 4.16006, 4.15963]",2828.08,3.6,3.7
376,0.5,1,35,"[0.0, 30.2599, 61.9206, 95.07, 128.912, 163.99, 199.464, 236.985, 276.215, 317.349]","[4.178885, 4.17444, 4.17148, 4.16912, 4.16743, 4.16593, 4.16467, 4.163528, 4.1625, 4.1618, 4.16097, 4.1603, 4.159708, 4.1592]",2824.47,3.6,3.7
382,0.5,1,35,"[0.0, 27.7423, 59.1296, 92.4202, 126.653, 160.625, 197.014, 233.933, 273.794, 303.49]","[4.17877, 4.17444, 4.17156, 4.16936, 4.16743, 4.16577, 4.16467, 4.16361, 4.1627, 4.16183, 4.16109, 4.1603, 4.15975, 4.15908]",2821.95,3.6,3.7
388,0.5,1,35,"[0.0, 23.7172, 54.8903, 87.9608, 122.269, 157.149, 192.487, 229.009, 268.996, 303.207]","[4.17881, 4.17428, 4.17121, 4.16896, 4.16719, 4.16558, 4.16443, 4.163331, 4.162425, 4.16164, 4.16077, 4.16018, 4.15951, 4.15904]",2818.73,3.6,3.7
394,0.5,1,35,"[0.0, 24.5866, 55.6259, 88.6989, 122.737, 157.795, 193.325, 230.218, 269.488, 303.359]","[4.17877, 4.174396, 4.1714, 4.16908, 4.16727, 4.16585, 4.16455, 4.16337, 4.1625, 4.16164, 4.16089, 4.1603, 4.15975, 4.15896]",2815.94,3.6,3.7
400,0.5,1,35,"[0.0, 18.9897, 50.2346, 83.0731, 116.872, 151.647, 187.113, 223.5, 263.101, 303.87]","[4.17885, 4.17428, 4.17125, 4.16896, 4.16731, 4.16577, 4.16443, 4.16321, 4.16235, 4.16136, 4.16077, 4.16006, 4.15935, 4.15884]",2812.81,3.6,3.7
406,0.5,1,35,"[0.0, 20.5433, 51.725, 84.4047, 118.182, 153.024, 188.462, 225.287, 264.326, 303.438]","[4.178688, 4.17408, 4.17109, 4.16869, 4.16695, 4.16546, 4.16428, 4.16302, 4.16223, 4.1614, 4.16069, 4.159905, 4.1592, 4.15876]",2810.19,3.6,3.7
414,0.5,1,35,"[0.0, 29.5213, 60.6951, 93.4694, 127.479, 161.849, 197.156, 234.189, 273.298, 301.968]","[4.17841, 4.17412, 4.17105, 4.16853, 4.16672, 4.16518, 4.16396, 4.16286, 4.16187, 4.16109, 4.1603, 4.15951, 4.15888, 4.15837]",2805.93,3.6,3.7
420,0.5,1,35,"[0.0, 29.2913, 60.2884, 92.6877, 126.756, 161.279, 196.168, 232.804, 272.533, 302.229]","[4.17822, 4.17377, 4.17073, 4.16849, 4.166481, 4.16506, 4.16361, 4.1625, 4.1616, 4.16065, 4.159905, 4.15935, 4.15865, 4.15801]",2802.38,3.6,3.7
426,0.5,1,35,"[0.0, 22.7565, 53.6851, 85.9437, 119.896, 153.979, 189.772, 226.285, 265.73, 302.505]","[4.17825, 4.17381, 4.17089, 4.16853, 4.16676, 4.16518, 4.16392, 4.16274, 4.1618, 4.16109, 4.1601, 4.15951, 4.1588, 4.15821]",2800.28,3.6,3.7
432,0.5,1,35,"[0.0, 27.0663, 57.8883, 90.6106, 124.336, 158.744, 193.821, 230.321, 269.001, 302.523]","[4.17814, 4.173687, 4.17069, 4.16837, 4.16652, 4.16498, 4.163528, 4.16258, 4.16144, 4.160614, 4.159905, 4.15928, 4.15861, 4.15805]",2797.46,3.6,3.7
438,0.5,1,35,"[0.0, 25.1522, 55.9656, 88.2349, 121.923, 156.892, 192.072, 228.133, 267.067, 302.439]","[4.177979, 4.17357, 4.17058, 4.1681, 4.16621, 4.16471, 4.16337, 4.16231, 4.16124, 4.16034, 4.15959, 4.159, 4.15841, 4.1577]",2793.88,3.6,3.7
444,0.5,1,35,"[0.0, 22.1277, 52.9108, 85.3535, 118.245, 153.04, 187.905, 224.643, 263.315, 302.188]","[4.17806, 4.17353, 4.17038, 4.168056, 4.16613, 4.16455, 4.16329, 4.16223, 4.16136, 4.1603, 4.15967, 4.15892, 4.15829, 4.15774]",2791.05,3.6,3.7
450,0.5,1,35,"[0.0, 19.5185, 50.2803, 82.1357, 115.892, 150.615, 185.68, 221.644, 260.845, 288.275]","[4.17806, 4.17349, 4.17046, 4.16813, 4.16609, 4.16455, 4.16329, 4.16211, 4.16124, 4.16034, 4.15943, 4.15876, 4.15829, 4.15754]",2788.31,3.6,3.7
456,0.5,1,35,"[0.0, 18.9781, 49.6132, 81.5257, 114.904, 149.776, 184.734, 221.034, 259.844, 287.811]","[4.17794, 4.17349, 4.17038, 4.1679, 4.16601, 4.16439, 4.16309, 4.16199, 4.161047, 4.16002, 4.15931, 4.15853, 4.15805, 4.1575]",2785.02,3.6,3.7
464,0.5,1,35,"[0.0, 27.0185, 57.4626, 89.773, 123.116, 157.893, 192.225, 228.56, 267.333, 301.691]","[4.177743, 4.17321, 4.17026, 4.16778, 4.16597, 4.16435, 4.16302, 4.16168, 4.16081, 4.16002, 4.15912, 4.15861, 4.15782, 4.15723]",2781.63,3.6,3.7
470,0.5,1,35,"[0.0, 29.3047, 59.788, 92.0341, 124.916, 159.71, 194.514, 230.651, 269.411, 301.376]","[4.17766, 4.1731, 4.16999, 4.16762, 4.16561, 4.16408, 4.1629, 4.16172, 4.16089, 4.15983, 4.15888, 4.15829, 4.1577, 4.15703]",2778.8,3.6,3.7
476,0.5,1,35,"[0.0, 27.5798, 57.997, 90.1264, 123.466, 157.694, 191.954, 228.589, 267.147, 301.071]","[4.17762, 4.1729, 4.16991, 4.16758, 4.16565, 4.164, 4.1627, 4.16148, 4.1605, 4.15955, 4.1588, 4.15817, 4.1575, 4.15679]",2775.57,3.6,3.7
482,0.5,1,35,"[0.0, 27.2854, 57.7402, 89.6278, 122.533, 157.208, 191.863, 227.954, 265.873, 300.955]","[4.17735, 4.17278, 4.16975, 4.16735, 4.16538, 4.16384, 4.1625, 4.16148, 4.16038, 4.15943, 4.15872, 4.157897, 4.15727, 4.15672]",2772.41,3.6,3.7
488,0.5,1,35,"[0.0, 25.8443, 56.2169, 88.064, 121.625, 155.465, 190.422, 225.842, 264.302, 301.404]","[4.17723, 4.17266, 4.169395, 4.16695, 4.165103, 4.16337, 4.16223, 4.16097, 4.16006, 4.15912, 4.15825, 4.15762, 4.15695, 4.1562]",2769.11,3.6,3.7
494,0.5,1,35,"[0.0, 21.1678, 51.6857, 83.3896, 116.609, 150.397, 185.067, 220.953, 259.451, 286.742]","[4.17723, 4.1727, 4.16943, 4.16699, 4.165103, 4.16357, 4.16211, 4.16101, 4.159905, 4.15916, 4.15837, 4.15758, 4.15679, 4.15636]",2766.57,3.6,3.7
500,0.5,1,35,"[0.0, 22.8533, 53.06, 85.0017, 117.881, 152.045, 186.36, 222.448, 260.8, 300.953]","[4.17707, 4.17247, 4.16928, 4.16687, 4.16506, 4.163331, 4.16199, 4.16073, 4.15987, 4.159, 4.15821, 4.15731, 4.156755, 4.15609]",2763.92,3.6,3.7
506,0.5,1,35,"[0.0, 21.4141, 51.6938, 83.1862, 116.428, 150.09, 185.16, 220.733, 258.908, 286.29]","[4.17672, 4.17219, 4.16896, 4.16644, 4.16479, 4.16298, 4.1618, 4.16065, 4.15939, 4.15868, 4.15778, 4.15715, 4.15644, 4.155849]",2761.28,3.6,3.7
514,0.5,1,35,"[0.0, 28.38, 58.5345, 90.0041, 123.456, 157.266, 191.393, 227.147, 265.348, 299.745]","[4.17688, 4.172348, 4.169, 4.166678, 4.16471, 4.16317, 4.16176, 4.16053, 4.15967, 4.15861, 4.15805, 4.15711, 4.15632, 4.155849]",2758.06,3.6,3.7
520,0.5,1,35,"[0.0, 26.459, 56.8316, 88.1999, 121.139, 154.863, 189.221, 224.992, 262.858, 300.09]","[4.1768, 4.172348, 4.16916, 4.166481, 4.16467, 4.16321, 4.16172, 4.1605, 4.15939, 4.15865, 4.15794, 4.15707, 4.1564, 4.15581]",2754.84,3.6,3.7
526,0.5,1,35,"[0.0, 29.3061, 59.3844, 90.7028, 123.423, 157.103, 191.725, 227.584, 265.226, 299.564]","[4.1768, 4.17195, 4.16877, 4.1664, 4.16447, 4.16278, 4.16144, 4.16042, 4.15928, 4.15837, 4.15762, 4.15672, 4.15624, 4.15561]",2752,3.6,3.7
532,0.5,1,35,"[0.0, 26.8318, 56.7686, 88.1566, 121.079, 154.561, 189.071, 224.801, 262.172, 299.617]","[4.176404, 4.17176, 4.16861, 4.16609, 4.164197, 4.16258, 4.16124, 4.1601, 4.15896, 4.15809, 4.15727, 4.1566, 4.15577, 4.1551]",2748.5,3.6,3.7
538,0.5,1,35,"[0.0, 27.0873, 57.2308, 88.2001, 120.857, 154.809, 189.305, 224.774, 262.226, 299.611]","[4.1766, 4.1716, 4.16853, 4.16597, 4.16404, 4.1625, 4.16101, 4.159905, 4.15868, 4.15786, 4.15703, 4.15632, 4.15577, 4.15518]",2746.56,3.6,3.7
544,0.5,1,35,"[0.0, 24.6559, 54.5313, 85.7724, 118.296, 152.415, 186.126, 222.335, 259.11, 299.289]","[4.17621, 4.17172, 4.16837, 4.166048, 4.164, 4.16235, 4.16113, 4.15979, 4.1588, 4.157897, 4.15695, 4.15628, 4.15538, 4.15471]",2743.44,3.6,3.7
550,0.5,1,35,"[0.0, 24.1404, 54.1007, 85.3474, 118.031, 151.766, 186.2, 221.448, 259.181, 299.092]","[4.17644, 4.171679, 4.16837, 4.16585, 4.164, 4.162425, 4.161047, 4.159905, 4.15876, 4.15782, 4.15711, 4.15628, 4.15557, 4.1551]",2741,3.6,3.7
556,0.5,1,35,"[0.0, 22.7307, 52.5032, 83.6662, 116.137, 149.903, 183.892, 219.668, 256.814, 284.944]","[4.17609, 4.1714, 4.168056, 4.16561, 4.16365, 4.16207, 4.16073, 4.159472, 4.15845, 4.15738, 4.15679, 4.15612, 4.15526, 4.15479]",2737.71,3.6,3.7
564,0.5,1,35,"[0.0, 28.0956, 57.7375, 88.8678, 121.536, 155.107, 188.687, 224.519, 261.615, 298.653]","[4.17609, 4.17129, 4.16794, 4.1655, 4.16361, 4.16176, 4.1605, 4.15931, 4.15825, 4.15735, 4.1564, 4.15573, 4.1551, 4.15439]",2734.72,3.6,3.7
570,0.5,1,35,"[0.0, 17.1202, 46.9398, 78.0484, 110.568, 143.729, 177.69, 213.135, 250.562, 285.368]","[4.17609, 4.17144, 4.16802, 4.16558, 4.163764, 4.16195, 4.16057, 4.15939, 4.15833, 4.15746, 4.156755, 4.15577, 4.15522, 4.15443]",2732.11,3.6,3.7
576,0.5,1,35,"[0.0, 17.7998, 47.5003, 78.4282, 111.19, 144.552, 178.391, 213.694, 250.776, 285.056]","[4.17601, 4.17121, 4.16782, 4.1655, 4.16349, 4.16187, 4.1605, 4.15924, 4.15809, 4.15723, 4.15644, 4.15573, 4.1551, 4.15431]",2729.38,3.6,3.7
582,0.5,1,35,"[0.0, 16.9765, 46.5422, 77.2893, 109.848, 143.196, 177.672, 212.74, 249.674, 284.856]","[4.17562, 4.17077, 4.1675, 4.16495, 4.1629, 4.16152, 4.16006, 4.1588, 4.15782, 4.15687, 4.15597, 4.1553, 4.15455, 4.15396]",2726.54,3.6,3.7
588,0.5,1,35,"[0.0, 28.4185, 58.1423, 88.8094, 121.461, 154.655, 188.531, 223.866, 260.406, 297.866]","[4.17554, 4.17077, 4.16762, 4.16502, 4.16302, 4.161283, 4.16002, 4.15876, 4.1577, 4.15679, 4.15601, 4.1551, 4.15447, 4.154038]",2724.02,3.6,3.7
594,0.5,1,35,"[0.0, 16.1777, 46.1104, 76.8216, 108.889, 142.034, 176.401, 211.023, 248.246, 284.917]","[4.17554, 4.17073, 4.1675, 4.16491, 4.16294, 4.1614, 4.15983, 4.15868, 4.1577, 4.15668, 4.155849, 4.15518, 4.15439, 4.15392]",2720.88,3.6,3.7
600,0.5,1,35,"[0.0, 25.5765, 55.2534, 85.8999, 118.293, 151.339, 185.188, 220.176, 257.186, 283.029]","[4.1755, 4.17062, 4.16739, 4.16495, 4.16298, 4.16113, 4.15983, 4.158566, 4.1575, 4.156558, 4.15573, 4.15498, 4.15447, 4.15368]",2718.1,3.6,3.7
606,0.5,1,35,"[0.0, 23.8907, 53.3457, 83.7812, 115.9, 149.29, 182.939, 218.397, 254.926, 283.612]","[4.17538, 4.1705, 4.16715, 4.16471, 4.16286, 4.16097, 4.159708, 4.15845, 4.15742, 4.15644, 4.15561, 4.15486, 4.154038, 4.15345]",2715.21,3.6,3.7
614,0.5,1,35,"[0.0, 24.8819, 54.3041, 84.8994, 117.118, 150.174, 184.192, 219.064, 256.036, 283.144]","[4.17514, 4.17022, 4.16703, 4.16463, 4.162622, 4.16093, 4.15951, 4.15829, 4.15719, 4.15616, 4.15546, 4.15455, 4.15392, 4.15333]",2712.48,3.6,3.7
620,0.5,1,35,"[0.0, 18.0245, 47.1693, 77.954, 109.528, 142.568, 176.568, 211.573, 248.202, 283.931]","[4.1753, 4.17034, 4.16707, 4.16459, 4.1625, 4.16097, 4.15939, 4.15833, 4.15715, 4.15624, 4.15538, 4.15467, 4.154, 4.15333]",2709.76,3.6,3.7
626,0.5,1,35,"[0.0, 19.9163, 49.2862, 79.625, 111.103, 144.609, 178.313, 213.05, 250.011, 283.289]","[4.175065, 4.17018, 4.166914, 4.16439, 4.16239, 4.16073, 4.15904, 4.15794, 4.15695, 4.15601, 4.1551, 4.15439, 4.15368, 4.15301]",2706.55,3.6,3.7
632,0.5,1,35,"[0.0, 20.0443, 49.3755, 79.7908, 111.533, 144.48, 178.017, 213.026, 249.165, 283.139]","[4.174829, 4.16991, 4.1668, 4.16412, 4.16211, 4.160614, 4.15904, 4.15782, 4.15668, 4.15577, 4.15494, 4.154038, 4.15357, 4.15286]",2703.65,3.6,3.7
638,0.5,1,35,"[0.0, 19.6236, 48.9498, 79.2565, 110.672, 143.906, 177.749, 212.036, 248.939, 283.094]","[4.17491, 4.17002, 4.16664, 4.16428, 4.16227, 4.16053, 4.15908, 4.157897, 4.15683, 4.15573, 4.15479, 4.15412, 4.1536, 4.1529]",2701.19,3.6,3.7
644,0.5,1,35,"[0.0, 16.3186, 45.6414, 75.8814, 107.292, 140.667, 174.323, 208.902, 245.255, 283.25]","[4.17475, 4.16995, 4.16656, 4.16404, 4.16195, 4.16046, 4.15892, 4.1577, 4.1564, 4.15534, 4.15471, 4.15388, 4.15329, 4.1525]",2698.7,3.6,3.7
650,0.5,1,35,"[0.0, 26.8577, 56.0662, 86.4134, 117.777, 150.462, 183.984, 219.058, 255.195, 281.694]","[4.17447, 4.16971, 4.16617, 4.16388, 4.16172, 4.1601, 4.15865, 4.1575, 4.15636, 4.15549, 4.15455, 4.15364, 4.15305, 4.15219]",2695.9,3.6,3.7
656,0.5,1,35,"[0.0, 27.5631, 57.0965, 87.3178, 118.575, 151.393, 184.975, 219.492, 256.234, 281.065]","[4.17444, 4.16951, 4.16628, 4.16361, 4.16172, 4.159905, 4.15861, 4.15723, 4.15616, 4.15522, 4.1542, 4.1536, 4.1529, 4.15211]",2693.34,3.6,3.7
662,0.5,1,35,"[0.0, 23.6637, 52.7349, 82.9585, 114.208, 146.979, 180.832, 215.118, 251.622, 281.128]","[4.17447, 4.16951, 4.16621, 4.163528, 4.16152, 4.16006, 4.15841, 4.15731, 4.15612, 4.15518, 4.15431, 4.15341, 4.1529, 4.15223]",2690.89,3.6,3.7
670,0.5,1,35,"[0.0, 19.2104, 48.2289, 78.4535, 109.671, 142.515, 176.216, 210.245, 246.428, 281.62]","[4.17416, 4.16932, 4.16589, 4.16345, 4.1614, 4.159708, 4.15837, 4.15699, 4.15609, 4.15494, 4.15408, 4.15325, 4.15274, 4.15199]",2687.96,3.6,3.7
676,0.5,1,35,"[0.0, 22.1184, 51.4727, 81.034, 112.697, 145.419, 179.268, 213.246, 249.159, 281.466]","[4.17396, 4.16912, 4.16565, 4.16317, 4.16124, 4.15943, 4.15798, 4.156755, 4.15561, 4.15483, 4.1538, 4.15305, 4.1525, 4.15171]",2685.24,3.6,3.7
682,0.5,1,35,"[0.0, 20.9268, 49.9177, 80.0229, 111.077, 143.771, 177.398, 211.172, 247.676, 281.062]","[4.17353, 4.16853, 4.16514, 4.1629, 4.16065, 4.15892, 4.1575, 4.15632, 4.15522, 4.15416, 4.15325, 4.15274, 4.15179, 4.15116]",2681.78,3.6,3.7
688,0.5,1,35,"[0.0, 22.2667, 51.1209, 81.0361, 112.373, 144.787, 177.954, 212.655, 248.179, 281.243]","[4.17388, 4.16888, 4.1655, 4.16266, 4.16077, 4.15912, 4.15762, 4.1564, 4.15526, 4.15443, 4.15333, 4.15274, 4.15207, 4.1514]",2679.79,3.6,3.7
694,0.5,1,35,"[0.0, 17.5049, 46.3563, 76.4411, 107.323, 139.742, 173.395, 207.614, 243.371, 281.321]","[4.17361, 4.1688, 4.16546, 4.16278, 4.16081, 4.15908, 4.15766, 4.15624, 4.15522, 4.15423, 4.15333, 4.15254, 4.15183, 4.15124]",2677.5,3.6,3.7
700,0.5,1,35,"[0.0, 15.8415, 44.861, 74.5005, 105.618, 138.201, 171.14, 205.479, 241.565, 266.392]","[4.17333, 4.16837, 4.165103, 4.16235, 4.16034, 4.15861, 4.15723, 4.15589, 4.1549, 4.1538, 4.15286, 4.15207, 4.1514, 4.15089]",2674.01,3.6,3.7
706,0.5,1,35,"[0.0, 17.0307, 46.0475, 75.935, 106.87, 139.442, 172.424, 206.004, 242.168, 265.623]","[4.17333, 4.16849, 4.16502, 4.16239, 4.1605, 4.15876, 4.15742, 4.15605, 4.15502, 4.15388, 4.15337, 4.15238, 4.1516, 4.15097]",2672.19,3.6,3.7
712,0.5,1,35,"[0.0, 27.7498, 56.4444, 86.1251, 116.854, 149.254, 182.351, 217.162, 252.51, 277.776]","[4.17321, 4.16825, 4.16483, 4.162189, 4.1603, 4.15841, 4.15711, 4.15577, 4.15475, 4.15368, 4.1529, 4.15211, 4.15136, 4.15065]",2669,3.6,3.7
720,0.5,1,35,"[0.0, 23.9073, 52.5724, 82.1775, 113.065, 145.556, 178.41, 212.692, 248.363, 279.723]","[4.17329, 4.16813, 4.16495, 4.16227, 4.16022, 4.15837, 4.15699, 4.15569, 4.15459, 4.1536, 4.15286, 4.15191, 4.1512, 4.15057]",2666.19,3.6,3.7
726,0.5,1,35,"[0.0, 24.7586, 53.5978, 83.2743, 113.935, 145.912, 178.802, 213.092, 249.028, 279.04]","[4.17321, 4.16798, 4.16459, 4.16203, 4.15994, 4.15829, 4.15683, 4.15553, 4.15439, 4.15357, 4.152699, 4.15175, 4.15089, 4.15049]",2663.16,3.6,3.7
732,0.5,1,35,"[0.0, 21.9081, 50.7857, 80.3877, 110.907, 143.171, 176.148, 210.187, 246.05, 280.242]","[4.17306, 4.16782, 4.16443, 4.16176, 4.15967, 4.15809, 4.156755, 4.15522, 4.1542, 4.15321, 4.15238, 4.151557, 4.15101, 4.15018]",2660.14,3.6,3.7
738,0.5,1,35,"[0.0, 18.325, 47.1157, 76.8562, 107.349, 139.45, 172.526, 205.952, 241.877, 265.653]","[4.17286, 4.16778, 4.16447, 4.16168, 4.15975, 4.157897, 4.15644, 4.15522, 4.1542, 4.15309, 4.15219, 4.15144, 4.15061, 4.14982]",2657.39,3.6,3.7
744,0.5,1,35,"[0.0, 17.4099, 45.9001, 75.5828, 105.971, 137.804, 170.981, 204.875, 240.004, 264.703]","[4.1729, 4.16786, 4.16435, 4.16172, 4.15983, 4.157897, 4.15652, 4.15518, 4.15412, 4.15321, 4.15234, 4.151557, 4.15069, 4.15006]",2655.61,3.6,3.7
750,0.5,1,35,"[0.0, 18.4011, 46.9497, 76.5073, 107.113, 138.952, 171.921, 205.676, 240.721, 264.206]","[4.17266, 4.16758, 4.164197, 4.16172, 4.15939, 4.15774, 4.15636, 4.15498, 4.15392, 4.15305, 4.15215, 4.15116, 4.15038, 4.14982]",2652.95,3.6,3.7
756,0.5,1,35,"[0.0, 15.9603, 44.3913, 73.5775, 104.296, 135.743, 169.03, 203.223, 238.269, 264.714]","[4.17247, 4.16747, 4.164, 4.1614, 4.15939, 4.15758, 4.15601, 4.15479, 4.15368, 4.15282, 4.15195, 4.15101, 4.1503, 4.14967]",2650.41,3.6,3.7
762,0.5,1,35,"[0.0, 16.8054, 45.4871, 74.8782, 105.416, 137.175, 170.137, 203.843, 239.319, 264.168]","[4.17243, 4.16719, 4.16384, 4.16136, 4.15912, 4.15731, 4.15597, 4.15475, 4.15357, 4.15258, 4.15179, 4.15093, 4.15022, 4.14967]",2647.85,3.6,3.7
770,0.5,1,35,"[0.0, 22.3412, 51.1969, 80.6775, 110.977, 142.624, 175.575, 209.228, 244.266, 278.404]","[4.17239, 4.16723, 4.163764, 4.16109, 4.15912, 4.15738, 4.15589, 4.15463, 4.15349, 4.15234, 4.1516, 4.15073, 4.1499, 4.14947]",2644.75,3.6,3.7
776,0.5,1,35,"[0.0, 23.7053, 52.1997, 81.4802, 111.94, 143.513, 175.758, 209.431, 244.839, 277.129]","[4.17215, 4.16715, 4.16361, 4.16101, 4.15904, 4.15727, 4.155849, 4.15459, 4.15333, 4.152266, 4.15136, 4.15057, 4.149785, 4.14919]",2641.98,3.6,3.7
782,0.5,1,35,"[0.0, 21.3097, 49.4891, 78.916, 109.107, 140.457, 173.148, 207.047, 241.849, 277.17]","[4.17203, 4.16684, 4.16337, 4.16065, 4.15865, 4.15683, 4.1551, 4.1538, 4.15262, 4.15179, 4.15073, 4.1499, 4.149, 4.14833]",2639.42,3.6,3.7
788,0.5,1,35,"[0.0, 20.4403, 48.6852, 78.0788, 108.225, 139.751, 172.579, 206.024, 240.733, 263.471]","[4.17195, 4.166678, 4.16321, 4.16057, 4.15849, 4.15672, 4.1553, 4.15412, 4.15297, 4.15195, 4.15108, 4.1503, 4.14947, 4.14884]",2636.9,3.6,3.7
794,0.5,1,35,"[0.0, 20.1923, 48.5039, 77.5655, 107.675, 139.205, 171.928, 205.497, 240.062, 262.942]","[4.17195, 4.16672, 4.16325, 4.16073, 4.158566, 4.15695, 4.15522, 4.15396, 4.15286, 4.15179, 4.15093, 4.15018, 4.14939, 4.1488]",2633.95,3.6,3.7
800,0.5,1,35,"[0.0, 21.0307, 49.1996, 78.0169, 108.344, 139.823, 171.971, 205.387, 239.97, 262.661]","[4.171679, 4.16652, 4.16309, 4.16042, 4.158566, 4.15672, 4.15514, 4.15392, 4.15274, 4.15164, 4.15081, 4.15014, 4.14931, 4.14856]",2631.34,3.6,3.7
806,0.5,1,35,"[0.0, 19.8891, 48.0987, 77.1854, 107.211, 138.607, 171.359, 204.86, 239.134, 262.29]","[4.17152, 4.16652, 4.16309, 4.16034, 4.15821, 4.1564, 4.15498, 4.15364, 4.152463, 4.15144, 4.15073, 4.14994, 4.14908, 4.14805]",2628.19,3.6,3.7
812,0.5,1,35,"[0.0, 17.9928, 46.0618, 75.1188, 105.008, 136.327, 168.799, 202.239, 236.782, 261.871]","[4.17136, 4.166245, 4.16286, 4.1601, 4.15798, 4.15628, 4.15463, 4.15337, 4.15234, 4.15128, 4.15053, 4.14939, 4.14876, 4.14817]",2626.21,3.6,3.7
820,0.5,1,35,"[0.0, 22.4522, 50.2952, 79.2582, 109.184, 140.455, 172.348, 206.564, 240.991, 275.262]","[4.17129, 4.1664, 4.16274, 4.16006, 4.15786, 4.1562, 4.15463, 4.15337, 4.15219, 4.15124, 4.15045, 4.149549, 4.14884, 4.14817]",2623.04,3.6,3.7
826,0.5,1,35,"[0.0, 25.5835, 53.5233, 82.4983, 112.307, 143.625, 175.602, 209.03, 243.808, 275.347]","[4.17109, 4.16581, 4.1625, 4.15983, 4.15766, 4.15593, 4.15439, 4.15317, 4.15199, 4.15105, 4.15006, 4.14912, 4.14856, 4.14793]",2620.18,3.6,3.7
832,0.5,1,35,"[0.0, 22.5773, 50.7708, 79.4356, 109.415, 140.479, 172.257, 205.423, 240.468, 274.601]","[4.17077, 4.1655, 4.16223, 4.15951, 4.15731, 4.15561, 4.15412, 4.15282, 4.15164, 4.15065, 4.14971, 4.149, 4.14809, 4.14742]",2617.79,3.6,3.7
838,0.5,1,35,"[0.0, 23.2043, 51.2775, 80.0933, 109.762, 140.819, 172.807, 206.296, 240.854, 274.431]","[4.17085, 4.16569, 4.16211, 4.15939, 4.15746, 4.15557, 4.15412, 4.15286, 4.15164, 4.15061, 4.14963, 4.14888, 4.14829, 4.14746]",2615.56,3.6,3.7
844,0.5,1,35,"[0.0, 20.8289, 48.7664, 77.6365, 107.368, 138.213, 170.498, 203.21, 237.38, 259.849]","[4.17062, 4.16538, 4.16211, 4.15924, 4.15719, 4.15542, 4.15392, 4.15258, 4.1514, 4.15053, 4.14943, 4.14876, 4.14805, 4.14719]",2612.62,3.6,3.7
850,0.5,1,35,"[0.0, 19.5562, 47.1865, 76.0382, 105.397, 136.503, 168.924, 202.019, 236.095, 260.432]","[4.17062, 4.165339, 4.16195, 4.15928, 4.15691, 4.15538, 4.1538, 4.1525, 4.15144, 4.15026, 4.14943, 4.14856, 4.14789, 4.1473]",2610.29,3.6,3.7
856,0.5,1,35,"[0.0, 18.8735, 46.7316, 75.2991, 105.019, 135.988, 168.009, 201.024, 235.554, 260.521]","[4.17062, 4.16565, 4.1618, 4.15935, 4.15711, 4.15534, 4.15384, 4.1525, 4.1514, 4.15041, 4.14947, 4.14849, 4.14778, 4.147068]",2607.67,3.6,3.7
862,0.5,1,35,"[0.0, 16.0341, 43.5445, 72.2918, 102.014, 132.59, 164.818, 197.626, 231.859, 261.096]","[4.17046, 4.16526, 4.16168, 4.15896, 4.15668, 4.1551, 4.1536, 4.15223, 4.15108, 4.15026, 4.14927, 4.148407, 4.14774, 4.14699]",2604.64,3.6,3.7
870,0.5,1,35,"[0.0, 24.2499, 51.9275, 80.5802, 110.229, 140.9, 172.63, 205.674, 239.499, 273.14]","[4.17042, 4.16514, 4.16156, 4.15876, 4.15683, 4.15483, 4.15341, 4.15231, 4.15101, 4.15006, 4.14904, 4.14821, 4.147501, 4.14667]",2601.63,3.6,3.7
876,0.5,1,35,"[0.0, 25.2564, 53.0719, 81.4071, 110.849, 141.408, 173.08, 205.793, 240.056, 271.798]","[4.17046, 4.16502, 4.16144, 4.1588, 4.15664, 4.15486, 4.15329, 4.15219, 4.15089, 4.14986, 4.14916, 4.14825, 4.14762, 4.14679]",2599.61,3.6,3.7
882,0.5,1,35,"[0.0, 25.4429, 53.238, 81.1772, 111.226, 141.716, 173.633, 206.505, 240.305, 271.319]","[4.17002, 4.16475, 4.16109, 4.15841, 4.15628, 4.15475, 4.15297, 4.15164, 4.15049, 4.149549, 4.1486, 4.14782, 4.14691, 4.14636]",2596.39,3.6,3.7
888,0.5,1,35,"[0.0, 24.8594, 52.4309, 80.7179, 110.039, 140.692, 172.305, 205.156, 238.959, 272.259]","[4.17002, 4.16479, 4.1612, 4.15841, 4.1564, 4.15459, 4.15301, 4.15171, 4.15053, 4.14951, 4.14872, 4.14782, 4.14711, 4.14632]",2593.94,3.6,3.7
894,0.5,1,35,"[0.0, 23.945, 51.4001, 79.6662, 109.172, 139.492, 171.007, 203.709, 237.653, 272.55]","[4.16975, 4.16435, 4.16085, 4.15809, 4.15597, 4.15435, 4.15258, 4.15144, 4.15018, 4.14923, 4.148407, 4.14762, 4.14675, 4.14608]",2591.99,3.6,3.7
900,0.5,1,35,"[0.0, 22.7548, 50.4248, 78.7623, 107.996, 138.405, 169.875, 202.736, 236.606, 271.599]","[4.16987, 4.16447, 4.16081, 4.15825, 4.15605, 4.15439, 4.152699, 4.1516, 4.15026, 4.14931, 4.14833, 4.14758, 4.14675, 4.14616]",2589.76,3.6,3.7
906,0.5,1,35,"[0.0, 21.915, 49.3509, 77.8074, 106.797, 137.385, 168.88, 201.646, 235.158, 257.641]","[4.169631, 4.16424, 4.16065, 4.15805, 4.15581, 4.15388, 4.152463, 4.15128, 4.15006, 4.14912, 4.14817, 4.1473, 4.1466, 4.14581]",2586.94,3.6,3.7
912,0.5,1,35,"[0.0, 20.1281, 47.6103, 75.7256, 105.091, 135.339, 166.709, 199.584, 232.826, 257.784]","[4.16947, 4.16416, 4.16042, 4.15778, 4.15561, 4.15392, 4.15242, 4.15108, 4.1499, 4.14884, 4.14789, 4.14711, 4.14628, 4.14573]",2584.49,3.6,3.7
920,0.5,1,35,"[0.0, 23.2548, 50.6464, 78.8966, 107.829, 138.218, 169.767, 202.415, 235.976, 271.365]","[4.16912, 4.16392, 4.16022, 4.15754, 4.15542, 4.15372, 4.152266, 4.15085, 4.14967, 4.14872, 4.14758, 4.14691, 4.1462, 4.14534]",2581.59,3.6,3.7
926,0.5,1,35,"[0.0, 16.1075, 43.5192, 71.4295, 100.675, 131.055, 162.543, 194.914, 228.549, 256.682]","[4.16928, 4.16384, 4.16038, 4.15786, 4.15522, 4.1536, 4.15223, 4.15077, 4.149785, 4.148643, 4.14762, 4.146832, 4.14624, 4.14545]",2579.17,3.6,3.7
932,0.5,1,35,"[0.0, 15.4919, 42.6357, 70.7936, 99.7286, 130.086, 161.386, 193.942, 227.311, 256.919]","[4.16908, 4.16392, 4.16026, 4.1575, 4.15522, 4.1536, 4.15211, 4.15081, 4.14959, 4.14856, 4.1477, 4.14687, 4.14604, 4.14541]",2576.45,3.6,3.7
938,0.5,1,35,"[0.0, 25.7183, 53.0455, 81.1281, 109.959, 139.966, 171.136, 203.322, 236.667, 269.907]","[4.169, 4.163528, 4.15975, 4.15738, 4.15494, 4.15325, 4.15175, 4.15038, 4.14923, 4.148407, 4.14746, 4.14656, 4.14581, 4.14502]",2573.57,3.6,3.7
944,0.5,1,35,"[0.0, 24.5866, 51.9245, 79.81, 108.838, 138.528, 169.703, 202.427, 235.491, 268.79]","[4.1688, 4.163528, 4.15979, 4.15707, 4.15502, 4.153132, 4.1516, 4.15026, 4.14916, 4.14809, 4.14719, 4.14632, 4.14557, 4.14474]",2570.77,3.6,3.7
950,0.5,1,35,"[0.0, 21.8937, 48.969, 77.1796, 105.923, 135.941, 166.762, 199.23, 232.525, 255.233]","[4.1688, 4.16337, 4.15994, 4.15727, 4.1549, 4.15309, 4.15168, 4.15026, 4.14908, 4.14805, 4.14703, 4.14624, 4.14553, 4.1449]",2568.56,3.6,3.7
956,0.5,1,35,"[0.0, 20.8504, 48.084, 75.8893, 104.77, 134.667, 165.675, 197.688, 230.975, 254.858]","[4.16861, 4.16306, 4.15963, 4.15679, 4.15463, 4.15294, 4.15128, 4.15006, 4.14888, 4.14789, 4.14695, 4.14616, 4.14534, 4.14474]",2565.51,3.6,3.7
962,0.5,1,35,"[0.0, 19.9454, 46.932, 74.8264, 103.63, 133.576, 164.494, 196.47, 229.472, 255.102]","[4.16845, 4.16329, 4.15951, 4.15683, 4.15459, 4.15286, 4.1512, 4.149982, 4.1488, 4.1477, 4.14687, 4.146, 4.1453, 4.14455]",2563.43,3.6,3.7
968,0.5,1,35,"[0.0, 17.7925, 44.7435, 72.5429, 101.353, 130.911, 162.013, 194.418, 227.318, 254.488]","[4.16849, 4.16298, 4.15951, 4.15679, 4.15455, 4.15266, 4.15144, 4.149982, 4.14872, 4.14786, 4.14679, 4.14585, 4.14518, 4.14447]",2561.24,3.6,3.7
976,0.5,1,35,"[0.0, 26.3315, 53.3424, 81.2815, 109.882, 139.492, 170.347, 202.32, 235.583, 267.088]","[4.16813, 4.16274, 4.15896, 4.15628, 4.15431, 4.15231, 4.15085, 4.14959, 4.14829, 4.1473, 4.14624, 4.14537, 4.144784, 4.144]",2557.75,3.6,3.7
982,0.5,1,35,"[0.0, 14.7133, 41.8905, 69.5648, 98.3802, 128.054, 158.804, 190.6, 223.887, 255.245]","[4.16798, 4.1625, 4.15896, 4.15616, 4.15396, 4.15223, 4.15069, 4.14943, 4.14813, 4.14715, 4.14636, 4.14537, 4.14455, 4.14388]",2555.09,3.6,3.7
988,0.5,1,35,"[0.0, 26.4708, 53.5312, 81.2233, 109.537, 139.347, 170.289, 201.975, 234.677, 267.307]","[4.16786, 4.162425, 4.1588, 4.15601, 4.15392, 4.15223, 4.15073, 4.14919, 4.14813, 4.14703, 4.14612, 4.14522, 4.14463, 4.14388]",2552.84,3.6,3.7
994,0.5,1,35,"[0.0, 25.2679, 52.1436, 79.84, 108.418, 137.648, 168.582, 200.254, 233.042, 266.827]","[4.16798, 4.162189, 4.15865, 4.15605, 4.15388, 4.15195, 4.15045, 4.14908, 4.14793, 4.146832, 4.14597, 4.14526, 4.14447, 4.14364]",2550.31,3.6,3.7
1000,0.5,1,35,"[0.0, 24.2079, 51.1162, 78.7403, 107.249, 136.903, 167.505, 199.08, 232.101, 265.918]","[4.16778, 4.16211, 4.15861, 4.15593, 4.1536, 4.15171, 4.15038, 4.14892, 4.14774, 4.14675, 4.14577, 4.14494, 4.14419, 4.14348]",2547.68,3.6,3.7
1006,0.5,1,35,"[0.0, 23.6715, 50.293, 78.0149, 106.307, 135.896, 166.534, 198.206, 231, 251.974]","[4.16766, 4.16207, 4.15853, 4.15577, 4.15345, 4.15171, 4.15014, 4.14892, 4.1477, 4.14675, 4.14577, 4.14498, 4.14408, 4.14352]",2546.23,3.6,3.7
1012,0.5,1,35,"[0.0, 22.7678, 49.7665, 77.2209, 105.771, 135.103, 165.505, 197.031, 229.956, 252.251]","[4.16735, 4.16187, 4.15829, 4.15553, 4.15333, 4.151557, 4.149982, 4.1486, 4.14742, 4.14644, 4.14569, 4.144784, 4.14396, 4.143209]",2543.88,3.6,3.7
1018,0.5,1,35,"[0.0, 21.9401, 48.5843, 76.3282, 104.592, 134.162, 164.793, 196.139, 228.812, 251.723]","[4.16731, 4.16168, 4.158133, 4.1553, 4.15325, 4.1514, 4.149785, 4.148407, 4.1473, 4.14632, 4.1453, 4.14451, 4.14372, 4.14309]",2541.03,3.6,3.7
1026,0.5,1,35,"[0.0, 16.9553, 43.8102, 71.1525, 99.5594, 129.094, 159.658, 190.869, 223.394, 252.759]","[4.16715, 4.16144, 4.1577, 4.15502, 4.15297, 4.1512, 4.14963, 4.14825, 4.14715, 4.146, 4.14514, 4.14447, 4.14356, 4.14293]",2538.35,3.6,3.7
1032,0.5,1,35,"[0.0, 18.5356, 45.2686, 72.6502, 100.781, 129.986, 160.441, 192.098, 224.106, 251.853]","[4.16695, 4.16152, 4.15794, 4.15518, 4.1529, 4.15108, 4.14947, 4.14813, 4.147068, 4.145926, 4.14522, 4.144115, 4.14345, 4.14258]",2536.01,3.6,3.7
1038,0.5,1,35,"[0.0, 16.0349, 42.646, 70.1793, 98.2431, 127.638, 158.072, 189.323, 222.179, 252.1]","[4.166914, 4.16132, 4.15766, 4.15502, 4.15274, 4.15101, 4.14931, 4.14805, 4.14687, 4.14585, 4.14482, 4.14408, 4.14329, 4.14262]",2533.33,3.6,3.7
1044,0.5,1,35,"[0.0, 16.8108, 43.4043, 70.513, 98.865, 128.026, 158.513, 189.621, 222.42, 251.894]","[4.16684, 4.16136, 4.15774, 4.1549, 4.1529, 4.15101, 4.14947, 4.14809, 4.14691, 4.14597, 4.14486, 4.14404, 4.14325, 4.14262]",2531.34,3.6,3.7
1050,0.5,1,35,"[0.0, 16.4791, 43.0422, 70.3972, 98.2956, 127.489, 157.743, 188.911, 221.128, 250.897]","[4.16664, 4.16097, 4.15735, 4.15455, 4.15238, 4.15053, 4.149, 4.14758, 4.14632, 4.14561, 4.14463, 4.14364, 4.14289, 4.14219]",2528.65,3.6,3.7
1056,0.5,1,35,"[0.0, 14.4591, 41.0783, 68.4322, 96.253, 125.404, 155.77, 187.055, 219.037, 252.106]","[4.16636, 4.16089, 4.15727, 4.15447, 4.15219, 4.15049, 4.14888, 4.14762, 4.14648, 4.1453, 4.14443, 4.14364, 4.14274, 4.14195]",2526.22,3.6,3.7
1062,0.5,1,35,"[0.0, 24.4957, 51.2085, 78.3677, 106.234, 135.127, 165.16, 196.35, 228.862, 248.598]","[4.16636, 4.16085, 4.15731, 4.15431, 4.15231, 4.15038, 4.1488, 4.14754, 4.1464, 4.14526, 4.14439, 4.14348, 4.14274, 4.14191]",2524.43,3.6,3.7
1068,0.5,1,35,"[0.0, 22.9092, 49.3762, 76.5395, 104.406, 133.666, 163.745, 194.986, 227.212, 248.814]","[4.16601, 4.16042, 4.15683, 4.154, 4.15183, 4.149982, 4.1486, 4.14715, 4.146, 4.144784, 4.144, 4.14309, 4.1423, 4.14175]",2521.59,3.6,3.7
1076,0.5,1,35,"[0.0, 20.5342, 47.1586, 74.4075, 102.375, 131.369, 161.649, 192.701, 224.626, 249.312]","[4.16589, 4.16018, 4.15648, 4.1538, 4.15168, 4.14986, 4.14833, 4.14691, 4.14589, 4.14494, 4.14384, 4.14305, 4.14222, 4.14152]",2518.8,3.6,3.7
1082,0.5,1,35,"[0.0, 19.5987, 46.2036, 73.2951, 101.125, 130.024, 160.023, 190.414, 223.027, 248.017]","[4.16554, 4.16006, 4.15648, 4.15364, 4.15148, 4.14963, 4.14797, 4.14671, 4.145493, 4.14455, 4.14341, 4.14262, 4.14203, 4.14132]",2516.18,3.6,3.7
1088,0.5,1,35,"[0.0, 19.2671, 45.7427, 72.6262, 100.551, 129.13, 158.962, 189.652, 221.853, 248.59]","[4.16573, 4.16002, 4.15632, 4.1538, 4.15152, 4.14951, 4.14801, 4.14667, 4.14561, 4.14455, 4.14348, 4.14282, 4.14195, 4.14136]",2514.22,3.6,3.7
1094,0.5,1,35,"[0.0, 19.1414, 45.5708, 72.374, 100.254, 129.042, 158.892, 189.809, 221.806, 248.049]","[4.1655, 4.15998, 4.15616, 4.15353, 4.15116, 4.14939, 4.14789, 4.14656, 4.14537, 4.14415, 4.14325, 4.1425, 4.14171, 4.141]",2511.39,3.6,3.7
1100,0.5,1,35,"[0.0, 15.3346, 41.869, 68.7946, 96.3983, 125.312, 155.142, 185.739, 217.976, 249.288]","[4.16565, 4.16002, 4.15636, 4.15364, 4.15144, 4.14967, 4.14809, 4.14691, 4.14557, 4.14451, 4.14352, 4.14278, 4.14183, 4.14116]",2509.37,3.6,3.7
1106,0.5,1,35,"[0.0, 15.6518, 42.0764, 69.069, 96.5017, 125.263, 154.806, 185.696, 217.328, 248.144]","[4.1653, 4.15979, 4.15605, 4.15325, 4.15128, 4.14927, 4.14774, 4.14628, 4.1451, 4.144115, 4.14309, 4.14226, 4.14167, 4.14081]",2506.15,3.6,3.7
1112,0.5,1,35,"[0.0, 25.0967, 51.5371, 78.2964, 105.995, 134.313, 164.258, 195.116, 226.834, 246.482]","[4.16522, 4.15959, 4.15601, 4.153132, 4.15101, 4.14912, 4.14766, 4.14632, 4.14514, 4.14415, 4.143209, 4.14219, 4.14156, 4.14065]",2503.97,3.6,3.7
1118,0.5,1,35,"[0.0, 22.9031, 49.0301, 76.0238, 103.514, 132.04, 161.896, 192.42, 224.326, 245.43]","[4.165339, 4.15967, 4.15593, 4.15321, 4.15093, 4.14919, 4.14766, 4.14624, 4.1453, 4.144115, 4.14301, 4.14238, 4.14156, 4.14073]",2502.26,3.6,3.7
1124,0.5,1,35,"[0.0, 14.7713, 41.0111, 67.8795, 95.4353, 124.141, 153.86, 184.581, 216.104, 248.11]","[4.16522, 4.15959, 4.15573, 4.15282, 4.15077, 4.14888, 4.1473, 4.14604, 4.14498, 4.14388, 4.14297, 4.14195, 4.14124, 4.14057]",2500.14,3.6,3.7