File: dataset/NCM/V3.6-3.7/CY45-05_1-#1.csv
Cycle,Charge_Current,Discharge_Current,Temperature,Capacity_Increment,Relaxation_Voltage,Discharge_Capacity,Start_Voltage,End_Voltage
2,0.5,1,45,"[0.0, 33.6392, 69.5247, 106.331, 146.242, 188.595, 235.822, 290.431, 350.109, 407.708]","[4.18619, 4.18308, 4.18115, 4.17961, 4.17851, 4.17745, 4.17654, 4.17579, 4.1754, 4.17481, 4.17434, 4.17386, 4.17367, 4.17319]",3298.18,3.6,3.7
5,0.5,1,45,"[0.0, 22.6487, 58.4834, 94.8413, 133.961, 176.186, 222.601, 276.613, 335.749, 393.132]","[4.18615, 4.18316, 4.18115, 4.179533, 4.17843, 4.17737, 4.17658, 4.17587, 4.1752, 4.17477, 4.1743, 4.17386, 4.17359, 4.17315]",3285.57,3.6,3.7
8,0.5,1,45,"[0.0, 23.8761, 59.4742, 95.6255, 134.241, 175.743, 221.309, 275.345, 334.416, 393.105]","[4.18623, 4.18319, 4.18099, 4.179533, 4.178391, 4.17749, 4.17658, 4.17591, 4.1754, 4.17477, 4.1743, 4.174099, 4.17347, 4.17327]",3272.86,3.6,3.7
11,0.5,1,45,"[0.0, 26.7138, 62.3069, 98.1524, 136.581, 178.158, 223.005, 275.62, 334.432, 393.101]","[4.18603, 4.18308, 4.18107, 4.179533, 4.17827, 4.17729, 4.17654, 4.17587, 4.17528, 4.17469, 4.17426, 4.17386, 4.17351, 4.173233]",3260.67,3.6,3.7
14,0.5,1,45,"[0.0, 32.7496, 68.0097, 103.629, 141.885, 182.931, 227.554, 279.745, 337.962, 393.11]","[4.186069, 4.183116, 4.18103, 4.17949, 4.17831, 4.177249, 4.17654, 4.17579, 4.17512, 4.17461, 4.17434, 4.1739, 4.17339, 4.17319]",3249.33,3.6,3.7
17,0.5,1,45,"[0.0, 27.34, 62.3648, 97.9089, 135.648, 176.284, 220.284, 272.15, 330.428, 378.553]","[4.18603, 4.18284, 4.18087, 4.17949, 4.17827, 4.17713, 4.17646, 4.17575, 4.17512, 4.17457, 4.17422, 4.17378, 4.173233, 4.17311]",3238.69,3.6,3.7
20,0.5,1,45,"[0.0, 33.1991, 68.5328, 103.871, 141.134, 181.337, 225.768, 276.407, 334.246, 393.096]","[4.18603, 4.182919, 4.18087, 4.17926, 4.17808, 4.17709, 4.1763, 4.175674, 4.17497, 4.17465, 4.17394, 4.17359, 4.17335, 4.17288]",3228.67,3.6,3.7
23,0.5,1,45,"[0.0, 24.3973, 59.5801, 94.6459, 131.895, 172.281, 215.616, 266.426, 324.251, 378.551]","[4.18568, 4.18276, 4.18075, 4.17902, 4.17792, 4.17686, 4.17623, 4.17532, 4.17489, 4.1743, 4.1739, 4.17343, 4.17292, 4.17256]",3218.74,3.6,3.7
26,0.5,1,45,"[0.0, 32.9076, 68.2678, 102.96, 140.542, 180.105, 223.559, 273.521, 330.756, 378.531]","[4.18579, 4.18264, 4.18071, 4.17902, 4.17792, 4.17686, 4.17611, 4.17552, 4.17465, 4.17426, 4.17378, 4.17343, 4.17292, 4.17256]",3209.94,3.6,3.7
29,0.5,1,45,"[0.0, 26.2423, 61.2805, 96.0748, 132.908, 172.594, 215.933, 264.945, 322.36, 378.548]","[4.18568, 4.18256, 4.18056, 4.17906, 4.17772, 4.17686, 4.17599, 4.17532, 4.17473, 4.17426, 4.17371, 4.17327, 4.17288, 4.17252]",3201.43,3.6,3.7
32,0.5,1,45,"[0.0, 33.4018, 68.9515, 103.69, 140.093, 179.62, 222.335, 271.854, 328.072, 378.526]","[4.18571, 4.18253, 4.18052, 4.17898, 4.17768, 4.17674, 4.17595, 4.17528, 4.17457, 4.17402, 4.17359, 4.17311, 4.1728, 4.17241]",3193.59,3.6,3.7
35,0.5,1,45,"[0.0, 31.4824, 67.004, 101.434, 137.946, 177.368, 219.913, 268.943, 324.962, 378.548]","[4.18568, 4.1826, 4.18048, 4.17882, 4.17768, 4.17654, 4.17579, 4.17504, 4.17445, 4.17394, 4.17339, 4.17319, 4.17256, 4.17237]",3185.79,3.6,3.7
38,0.5,1,45,"[0.0, 25.0838, 60.3204, 94.893, 131.203, 170.257, 212.301, 260.818, 316.526, 363.99]","[4.1856, 4.18241, 4.18036, 4.17878, 4.17749, 4.1765, 4.17579, 4.17501, 4.17445, 4.17398, 4.17351, 4.17308, 4.1726, 4.17225]",3178.68,3.6,3.7
41,0.5,1,45,"[0.0, 33.4854, 68.8591, 103.56, 139.546, 178.679, 220.926, 268.715, 324.962, 378.553]","[4.18552, 4.18245, 4.18012, 4.17882, 4.1776, 4.17646, 4.17571, 4.17508, 4.17437, 4.17378, 4.17339, 4.17284, 4.17264, 4.17217]",3171.56,3.6,3.7
44,0.5,1,45,"[0.0, 26.5243, 61.8646, 96.7479, 132.547, 171.32, 212.967, 260.965, 316.234, 364.015]","[4.18544, 4.18221, 4.18024, 4.17871, 4.17741, 4.1763, 4.17563, 4.17485, 4.174099, 4.17359, 4.17308, 4.17276, 4.17248, 4.17193]",3165.05,3.6,3.7
47,0.5,1,45,"[0.0, 23.5524, 58.3398, 93.5576, 129.571, 167.824, 209.974, 256.556, 311.712, 363.965]","[4.1852, 4.18225, 4.18008, 4.17847, 4.17709, 4.17623, 4.1754, 4.17453, 4.1739, 4.17339, 4.17296, 4.17256, 4.17221, 4.171855]",3158.4,3.6,3.7
50,0.5,1,45,"[0.0, 33.9281, 69.2309, 103.689, 139.248, 177.825, 219.113, 266.465, 321.096, 378.534]","[4.18524, 4.18217, 4.179966, 4.17851, 4.17729, 4.17619, 4.17536, 4.17465, 4.17394, 4.17343, 4.17296, 4.17264, 4.17217, 4.17178]",3152.38,3.6,3.7
55,0.5,1,45,"[0.0, 28.6893, 63.9163, 98.8858, 134.182, 172.487, 213.679, 259.956, 314.648, 363.991]","[4.18508, 4.18186, 4.17969, 4.17815, 4.17693, 4.17587, 4.17504, 4.17437, 4.17386, 4.17319, 4.17264, 4.17233, 4.17189, 4.17154]",3143.02,3.6,3.7
58,0.5,1,45,"[0.0, 25.1752, 60.6652, 95.0173, 130.37, 168.565, 209.454, 255.846, 309.388, 363.93]","[4.1852, 4.18205, 4.17993, 4.178194, 4.17701, 4.17587, 4.17512, 4.17434, 4.17371, 4.17308, 4.17272, 4.17233, 4.17189, 4.17146]",3137.39,3.6,3.7
61,0.5,1,45,"[0.0, 32.5788, 67.6813, 102.407, 137.225, 175.353, 216.38, 261.376, 316.288, 363.987]","[4.18508, 4.1819, 4.17985, 4.178194, 4.17701, 4.17583, 4.17504, 4.17437, 4.17359, 4.17315, 4.17268, 4.17225, 4.1717, 4.17138]",3132.22,3.6,3.7
64,0.5,1,45,"[0.0, 29.0745, 64.4072, 98.8169, 133.869, 172.134, 212.835, 258.73, 311.117, 363.992]","[4.18501, 4.1819, 4.17961, 4.17812, 4.17666, 4.17579, 4.17489, 4.174099, 4.17351, 4.17284, 4.17229, 4.17201, 4.1715, 4.17123]",3126.73,3.6,3.7
67,0.5,1,45,"[0.0, 28.6937, 64.4601, 98.6859, 133.825, 171.338, 212.604, 257.19, 310.083, 363.989]","[4.18508, 4.18186, 4.17965, 4.177958, 4.17674, 4.17563, 4.17493, 4.17414, 4.17347, 4.17292, 4.17233, 4.17205, 4.17154, 4.17123]",3121.74,3.6,3.7
70,0.5,1,45,"[0.0, 25.0247, 60.585, 95.2435, 129.459, 167.647, 208.488, 252.812, 306.101, 349.391]","[4.184927, 4.18146, 4.17949, 4.17776, 4.17646, 4.1754, 4.17461, 4.17394, 4.17315, 4.1726, 4.17197, 4.17158, 4.1713, 4.17099]",3116.49,3.6,3.7
73,0.5,1,45,"[0.0, 23.0545, 58.5956, 93.3628, 128.264, 165.494, 205.723, 250.582, 303.218, 349.455]","[4.184927, 4.18162, 4.1793, 4.17776, 4.17654, 4.1754, 4.17465, 4.1739, 4.17315, 4.1726, 4.17213, 4.1717, 4.17123, 4.17079]",3111.92,3.6,3.7
76,0.5,1,45,"[0.0, 35.2272, 70.9268, 105.468, 139.927, 177.397, 217.365, 261.7, 314.547, 363.96]","[4.18481, 4.1815, 4.17938, 4.17792, 4.176383, 4.17544, 4.17441, 4.17371, 4.173233, 4.17252, 4.17217, 4.17158, 4.17111, 4.17087]",3107.22,3.6,3.7
79,0.5,1,45,"[0.0, 27.6864, 63.5404, 98.0886, 132.597, 169.846, 209.989, 254.387, 306.512, 349.403]","[4.18477, 4.1815, 4.17922, 4.1776, 4.17626, 4.17508, 4.17437, 4.17351, 4.1728, 4.17217, 4.17174, 4.17119, 4.17095, 4.17056]",3102.51,3.6,3.7
82,0.5,1,45,"[0.0, 27.3051, 62.9895, 97.6601, 131.464, 169.585, 209.504, 253.71, 305.741, 349.416]","[4.184691, 4.181541, 4.17902, 4.17752, 4.17634, 4.17528, 4.1743, 4.17359, 4.17284, 4.17229, 4.17178, 4.17134, 4.17083, 4.17048]",3097.7,3.6,3.7
85,0.5,1,45,"[0.0, 24.9908, 61.0357, 95.4265, 129.844, 166.749, 206.933, 250.703, 302.583, 349.433]","[4.18457, 4.18127, 4.17898, 4.17764, 4.17607, 4.17497, 4.17402, 4.17327, 4.17252, 4.17213, 4.171658, 4.17119, 4.17067, 4.17036]",3093.46,3.6,3.7
88,0.5,1,45,"[0.0, 22.762, 58.7158, 92.986, 127.574, 164.406, 204.361, 247.645, 299.395, 349.417]","[4.18465, 4.18127, 4.17906, 4.17733, 4.17619, 4.17493, 4.174099, 4.17327, 4.17264, 4.172091, 4.17158, 4.17111, 4.17063, 4.17016]",3089.4,3.6,3.7
91,0.5,1,45,"[0.0, 22.8558, 58.721, 93.1654, 127.461, 164.202, 203.932, 247.33, 298.48, 349.435]","[4.184494, 4.1813, 4.17902, 4.17745, 4.17591, 4.17493, 4.17398, 4.17315, 4.17256, 4.17205, 4.17146, 4.17103, 4.170516, 4.17012]",3085.26,3.6,3.7
94,0.5,1,45,"[0.0, 31.6078, 67.3633, 101.915, 136.081, 173.349, 212.639, 255.829, 306.713, 349.403]","[4.18453, 4.18115, 4.17882, 4.17709, 4.17611, 4.17473, 4.17394, 4.17315, 4.17237, 4.171658, 4.17134, 4.17091, 4.17036, 4.16996]",3080.98,3.6,3.7
97,0.5,1,45,"[0.0, 30.6491, 66.2261, 101.089, 135.274, 171.932, 211.408, 253.994, 305.177, 349.414]","[4.18434, 4.18087, 4.17878, 4.17713, 4.17579, 4.17469, 4.17367, 4.173, 4.17229, 4.1717, 4.17103, 4.17079, 4.17016, 4.16977]",3076.87,3.6,3.7
100,0.5,1,45,"[0.0, 29.202, 64.7908, 99.4328, 133.463, 169.794, 209.451, 251.953, 302.334, 349.228]","[4.18438, 4.18103, 4.17882, 4.17697, 4.17563, 4.17465, 4.17359, 4.17296, 4.17221, 4.17158, 4.17103, 4.17056, 4.17004, 4.16965]",3072.86,3.6,3.7
105,0.5,1,45,"[0.0, 23.5998, 59.6029, 94.2164, 127.923, 164.189, 203.752, 246.497, 296.503, 349.408]","[4.18418, 4.18099, 4.178627, 4.17689, 4.17552, 4.17457, 4.17367, 4.17272, 4.17197, 4.17142, 4.17071, 4.17032, 4.16993, 4.16945]",3067.08,3.6,3.7
108,0.5,1,45,"[0.0, 35.0268, 71.2451, 105.74, 139.384, 175.604, 214.803, 257.547, 307.448, 349.422]","[4.18406, 4.18067, 4.17851, 4.17678, 4.17536, 4.17422, 4.17319, 4.17245, 4.17189, 4.17119, 4.17044, 4.170083, 4.16973, 4.16937]",3062.71,3.6,3.7
111,0.5,1,45,"[0.0, 33.1422, 69.0132, 103.563, 137.622, 173.836, 212.675, 254.902, 303.937, 349.41]","[4.18402, 4.18083, 4.178391, 4.17666, 4.17528, 4.1743, 4.17331, 4.17245, 4.17174, 4.17111, 4.17056, 4.16996, 4.16961, 4.1693]",3059.08,3.6,3.7
114,0.5,1,45,"[0.0, 33.3455, 69.488, 103.774, 137.605, 173.801, 212.501, 254.561, 304.175, 349.382]","[4.18398, 4.18075, 4.17827, 4.17666, 4.17532, 4.174099, 4.17304, 4.17225, 4.171658, 4.17103, 4.170516, 4.17, 4.16953, 4.1691]",3055.51,3.6,3.7
117,0.5,1,45,"[0.0, 30.3564, 66.2457, 100.707, 134.405, 170.923, 209.426, 251.114, 300.285, 349.423]","[4.18394, 4.18048, 4.17823, 4.17662, 4.17508, 4.17394, 4.173, 4.172091, 4.17154, 4.17095, 4.17028, 4.16981, 4.16926, 4.1689]",3051.75,3.6,3.7
120,0.5,1,45,"[0.0, 29.3395, 65.1259, 100.227, 133.498, 169.619, 208.925, 249.723, 299.305, 349.348]","[4.18394, 4.18044, 4.17815, 4.17642, 4.17504, 4.17386, 4.173, 4.17213, 4.17138, 4.17067, 4.17012, 4.16981, 4.16918, 4.16882]",3048.31,3.6,3.7
123,0.5,1,45,"[0.0, 25.273, 61.0846, 95.4885, 129.534, 165.412, 203.846, 245.725, 294.031, 349.199]","[4.18379, 4.18032, 4.17812, 4.17626, 4.17489, 4.17371, 4.17276, 4.172091, 4.17126, 4.17071, 4.17012, 4.16957, 4.1691, 4.168705]",3044.62,3.6,3.7
126,0.5,1,45,"[0.0, 25.5006, 61.482, 96.1429, 129.851, 165.498, 204.562, 245.607, 294.246, 349.346]","[4.18379, 4.18036, 4.17808, 4.17619, 4.17477, 4.17359, 4.17272, 4.171855, 4.17119, 4.17059, 4.170083, 4.16953, 4.16902, 4.16855]",3041.12,3.6,3.7
129,0.5,1,45,"[0.0, 23.8856, 59.8624, 94.8162, 128.408, 163.91, 202.283, 243.665, 291.548, 334.843]","[4.18371, 4.18028, 4.17792, 4.17626, 4.17485, 4.17367, 4.1726, 4.17193, 4.17123, 4.17044, 4.16993, 4.16937, 4.1689, 4.16851]",3037.92,3.6,3.7
132,0.5,1,45,"[0.0, 21.9895, 57.8476, 92.5762, 126.415, 162.053, 200.234, 242.098, 289.446, 334.717]","[4.18343, 4.18012, 4.17776, 4.17599, 4.17449, 4.17343, 4.17248, 4.17154, 4.17083, 4.17028, 4.16973, 4.16922, 4.16855, 4.16827]",3034.25,3.6,3.7
135,0.5,1,45,"[0.0, 31.8138, 67.6208, 102.036, 136.306, 171.797, 210.108, 250.881, 298.725, 349.417]","[4.18347, 4.179966, 4.17741, 4.17575, 4.17445, 4.17319, 4.17221, 4.1713, 4.17063, 4.16981, 4.16933, 4.168941, 4.16851, 4.16792]",3030.69,3.6,3.7
138,0.5,1,45,"[0.0, 34.7476, 70.5437, 105.685, 139.462, 174.779, 213.276, 253.949, 301.257, 349.443]","[4.18339, 4.179966, 4.17756, 4.17587, 4.17445, 4.17319, 4.17229, 4.17138, 4.17067, 4.17, 4.16933, 4.16902, 4.16847, 4.16804]",3027.73,3.6,3.7
141,0.5,1,45,"[0.0, 30.5862, 66.707, 101.928, 135.354, 170.852, 209.156, 249.496, 297.251, 349.117]","[4.18327, 4.17989, 4.1776, 4.17575, 4.17426, 4.17311, 4.17213, 4.17134, 4.17056, 4.16985, 4.16937, 4.16878, 4.16823, 4.16784]",3024.42,3.6,3.7
144,0.5,1,45,"[0.0, 29.8674, 66.2885, 101.443, 134.98, 170.095, 208.428, 249.15, 295.417, 349.42]","[4.18316, 4.17965, 4.17729, 4.17544, 4.17402, 4.17292, 4.17197, 4.17119, 4.17032, 4.16973, 4.16902, 4.16859, 4.168, 4.167563]",3021.13,3.6,3.7
147,0.5,1,45,"[0.0, 28.225, 64.8208, 99.69, 133.495, 168.219, 206.425, 247.343, 293.418, 334.885]","[4.18335, 4.179769, 4.17749, 4.1756, 4.17414, 4.17304, 4.172091, 4.17103, 4.17024, 4.16969, 4.16902, 4.16867, 4.16827, 4.16764]",3018.49,3.6,3.7
150,0.5,1,45,"[0.0, 26.7391, 63.1618, 98.0481, 131.682, 166.918, 204.485, 245.166, 291.571, 334.878]","[4.18323, 4.17965, 4.17745, 4.17552, 4.17406, 4.17284, 4.17182, 4.17087, 4.17024, 4.16949, 4.168941, 4.16839, 4.16792, 4.16744]",3015.2,3.6,3.7
155,0.5,1,45,"[0.0, 23.6196, 59.7467, 94.6532, 128.163, 163.415, 201.275, 241.96, 287.435, 334.887]","[4.18308, 4.17961, 4.17713, 4.17528, 4.17386, 4.17276, 4.17162, 4.17075, 4.17012, 4.16933, 4.16878, 4.16823, 4.16772, 4.16729]",3011.14,3.6,3.7
158,0.5,1,45,"[0.0, 35.2187, 71.3597, 106.527, 140.119, 175.005, 212.967, 253.074, 298.447, 349.133]","[4.183, 4.17941, 4.17697, 4.17512, 4.17382, 4.17245, 4.17174, 4.17067, 4.17, 4.16914, 4.16874, 4.16811, 4.16752, 4.16713]",3007.54,3.6,3.7
161,0.5,1,45,"[0.0, 35.4308, 71.6235, 106.331, 140.421, 175.308, 212.473, 252.815, 298.393, 349.44]","[4.182919, 4.17945, 4.17701, 4.1752, 4.17374, 4.17245, 4.17142, 4.17059, 4.16985, 4.16914, 4.16863, 4.16788, 4.16748, 4.16689]",3004.38,3.6,3.7
164,0.5,1,45,"[0.0, 33.1654, 69.5758, 104.167, 138.214, 173.001, 210.333, 250.717, 296.079, 349.166]","[4.182919, 4.17941, 4.17693, 4.1752, 4.17355, 4.17245, 4.17138, 4.17036, 4.16953, 4.16886, 4.16835, 4.16792, 4.16733, 4.16693]",3001.28,3.6,3.7
167,0.5,1,45,"[0.0, 31.807, 67.6353, 103.376, 136.893, 171.512, 208.825, 249.144, 294.14, 334.736]","[4.1828, 4.17922, 4.17678, 4.17481, 4.17351, 4.17217, 4.17111, 4.17028, 4.16945, 4.16874, 4.16819, 4.1676, 4.16713, 4.16662]",2997.84,3.6,3.7
170,0.5,1,45,"[0.0, 28.952, 65.1126, 100.216, 133.986, 168.577, 205.935, 245.504, 290.557, 334.891]","[4.18264, 4.17902, 4.1767, 4.17465, 4.17319, 4.17205, 4.17099, 4.1702, 4.16933, 4.16863, 4.16819, 4.16744, 4.16697, 4.16646]",2994.92,3.6,3.7
173,0.5,1,45,"[0.0, 27.2248, 63.2052, 98.5688, 132.072, 166.826, 203.701, 244.056, 288.603, 334.792]","[4.18284, 4.1791, 4.17658, 4.17477, 4.17335, 4.17221, 4.17099, 4.17028, 4.16933, 4.16863, 4.16792, 4.16741, 4.16709, 4.16666]",2992.02,3.6,3.7
176,0.5,1,45,"[0.0, 25.3104, 61.1164, 96.7996, 130.458, 164.429, 201.784, 242.15, 285.842, 334.902]","[4.18264, 4.17882, 4.176383, 4.17453, 4.17296, 4.17174, 4.17075, 4.16985, 4.16898, 4.16835, 4.16764, 4.16709, 4.16654, 4.16607]",2988.67,3.6,3.7
179,0.5,1,45,"[0.0, 24.5769, 60.5022, 95.8602, 129.767, 164.082, 201.386, 241.315, 285.548, 334.878]","[4.18253, 4.17886, 4.17626, 4.17441, 4.17308, 4.17162, 4.17067, 4.16961, 4.1689, 4.16823, 4.1676, 4.16709, 4.1665, 4.165988]",2985.93,3.6,3.7
182,0.5,1,45,"[0.0, 23.842, 59.9791, 95.0153, 128.616, 163.262, 200.356, 239.958, 284.226, 334.702]","[4.18253, 4.17875, 4.17619, 4.17414, 4.17284, 4.17154, 4.17044, 4.16949, 4.16874, 4.16784, 4.167366, 4.16674, 4.16638, 4.16587]",2982.92,3.6,3.7
185,0.5,1,45,"[0.0, 35.4317, 71.3801, 106.902, 140.426, 174.783, 211.932, 251.332, 295.442, 334.885]","[4.18233, 4.17875, 4.176383, 4.17437, 4.17284, 4.17146, 4.17059, 4.16953, 4.16878, 4.16808, 4.16733, 4.16681, 4.16642, 4.16591]",2980.43,3.6,3.7
188,0.5,1,45,"[0.0, 26.4291, 62.4525, 97.9412, 131.689, 165.847, 202.517, 242.169, 286.425, 334.781]","[4.18229, 4.178627, 4.17611, 4.17402, 4.17268, 4.17134, 4.17028, 4.16941, 4.16867, 4.16796, 4.16717, 4.16666, 4.16615, 4.16575]",2977.28,3.6,3.7
191,0.5,1,45,"[0.0, 32.4889, 68.8246, 104.063, 137.768, 172.653, 209.142, 248.373, 291.832, 334.841]","[4.18217, 4.17871, 4.17607, 4.17406, 4.17272, 4.17134, 4.17032, 4.16953, 4.16859, 4.16784, 4.16725, 4.166697, 4.16615, 4.16567]",2974.31,3.6,3.7
194,0.5,1,45,"[0.0, 31.5491, 67.6307, 102.658, 136.849, 170.774, 207.67, 246.541, 290.541, 334.889]","[4.18233, 4.178627, 4.17595, 4.17418, 4.17256, 4.17134, 4.17028, 4.1691, 4.16843, 4.1678, 4.16721, 4.16654, 4.16591, 4.16559]",2971.56,3.6,3.7
197,0.5,1,45,"[0.0, 27.4334, 63.4505, 98.7628, 132.553, 167.047, 203.525, 242.738, 286.514, 334.884]","[4.18233, 4.17851, 4.17595, 4.17402, 4.1726, 4.17123, 4.1702, 4.1693, 4.16847, 4.16764, 4.16701, 4.1665, 4.16595, 4.165555]",2968.87,3.6,3.7
200,0.5,1,45,"[0.0, 26.5913, 62.4395, 98.3205, 132.021, 166.338, 202.62, 241.65, 284.854, 334.894]","[4.18217, 4.17847, 4.17591, 4.17386, 4.17241, 4.17119, 4.16996, 4.16902, 4.16819, 4.16748, 4.16681, 4.16626, 4.16579, 4.16532]",2966.4,3.6,3.7
203,0.5,1,45,"[0.0, 26.1151, 61.7037, 97.3724, 130.943, 164.975, 201.885, 240.88, 284.008, 334.406]","[4.18225, 4.17843, 4.17575, 4.17406, 4.17233, 4.17111, 4.16996, 4.16906, 4.16831, 4.16741, 4.16689, 4.16626, 4.16579, 4.16516]",2963.52,3.6,3.7
208,0.5,1,45,"[0.0, 34.955, 71.1102, 106.826, 140.348, 174.721, 210.954, 249.895, 292.367, 334.833]","[4.1819, 4.17823, 4.17571, 4.17371, 4.172091, 4.17091, 4.16965, 4.16874, 4.16788, 4.16713, 4.16662, 4.16591, 4.1654, 4.16496]",2959.46,3.6,3.7
211,0.5,1,45,"[0.0, 35.7073, 71.7695, 107.198, 141.367, 175.281, 211.461, 250.232, 293.326, 334.876]","[4.18205, 4.17812, 4.17563, 4.17371, 4.17201, 4.17079, 4.16973, 4.168705, 4.16792, 4.16713, 4.1665, 4.16595, 4.16548, 4.165]",2956.94,3.6,3.7
214,0.5,1,45,"[0.0, 34.2274, 69.9272, 105.237, 139.622, 173.457, 209.775, 248.181, 290.537, 334.838]","[4.1817, 4.178, 4.17536, 4.17351, 4.171855, 4.17056, 4.16933, 4.16851, 4.16764, 4.16693, 4.16618, 4.16575, 4.16516, 4.16465]",2953.57,3.6,3.7
217,0.5,1,45,"[0.0, 33.2968, 69.2115, 104.847, 138.699, 172.881, 208.717, 247.754, 290.407, 334.575]","[4.18182, 4.17804, 4.17536, 4.17351, 4.17178, 4.17075, 4.16941, 4.16859, 4.16772, 4.16693, 4.16611, 4.16563, 4.16504, 4.16457]",2951.09,3.6,3.7
220,0.5,1,45,"[0.0, 31.9928, 67.7168, 102.929, 137.228, 170.99, 207.091, 245.457, 287.802, 334.805]","[4.18166, 4.17792, 4.17532, 4.17327, 4.17174, 4.17028, 4.16933, 4.16831, 4.167366, 4.16674, 4.16591, 4.1654, 4.16473, 4.16433]",2948.49,3.6,3.7
223,0.5,1,45,"[0.0, 29.8483, 66.1945, 101.432, 135.695, 169.815, 205.322, 244.205, 286.433, 334.916]","[4.1815, 4.17792, 4.17516, 4.17311, 4.17174, 4.17036, 4.16922, 4.16811, 4.16733, 4.16662, 4.16595, 4.16528, 4.16493, 4.1643]",2945.86,3.6,3.7
226,0.5,1,45,"[0.0, 28.9591, 64.8756, 100.47, 134.769, 168.326, 204.652, 242.802, 285.229, 320.009]","[4.18166, 4.1778, 4.1752, 4.17315, 4.171658, 4.1702, 4.16914, 4.16808, 4.16729, 4.16658, 4.16591, 4.16532, 4.16485, 4.16414]",2943.25,3.6,3.7
229,0.5,1,45,"[0.0, 25.4071, 61.4444, 97.158, 131.294, 164.562, 200.478, 239.325, 281.241, 320.118]","[4.18158, 4.17776, 4.17508, 4.17308, 4.17138, 4.17016, 4.1689, 4.16804, 4.16697, 4.16622, 4.16567, 4.165, 4.16445, 4.16398]",2940.53,3.6,3.7
232,0.5,1,45,"[0.0, 24.7373, 60.8613, 96.3603, 130.005, 164.025, 200.079, 238.336, 280.606, 319.704]","[4.181344, 4.17749, 4.17477, 4.17276, 4.17119, 4.16977, 4.16886, 4.16768, 4.16701, 4.16611, 4.16536, 4.16469, 4.1643, 4.16382]",2937.76,3.6,3.7
235,0.5,1,45,"[0.0, 21.8626, 57.7191, 93.3164, 127.256, 160.318, 196.551, 235.383, 276.62, 320.299]","[4.18142, 4.1776, 4.17504, 4.17296, 4.17126, 4.16993, 4.1689, 4.16788, 4.16705, 4.16618, 4.16559, 4.16493, 4.16449, 4.16382]",2935.89,3.6,3.7
238,0.5,1,45,"[0.0, 21.1618, 57.2062, 92.7585, 126.562, 159.941, 196.11, 234.617, 275.669, 319.93]","[4.18119, 4.17745, 4.17477, 4.17284, 4.17107, 4.16981, 4.168705, 4.16764, 4.16678, 4.165988, 4.16544, 4.16469, 4.1641, 4.1637]",2933.07,3.6,3.7
241,0.5,1,45,"[0.0, 22.8592, 58.9872, 93.8312, 128.531, 161.528, 197.409, 236.054, 276.878, 320.224]","[4.18119, 4.17729, 4.17461, 4.17264, 4.17095, 4.16957, 4.16843, 4.1676, 4.1665, 4.16579, 4.16516, 4.16449, 4.16398, 4.16343]",2930.31,3.6,3.7
244,0.5,1,45,"[0.0, 21.1033, 57.1947, 92.4304, 126.898, 160.456, 195.858, 234.062, 274.842, 320.187]","[4.18119, 4.17705, 4.17457, 4.1726, 4.17087, 4.16957, 4.16831, 4.16741, 4.1665, 4.16575, 4.16504, 4.164413, 4.16394, 4.16347]",2927.98,3.6,3.7
247,0.5,1,45,"[0.0, 28.9594, 64.9885, 100.543, 134.572, 168.412, 203.813, 242.163, 282.867, 320.353]","[4.18107, 4.17709, 4.17449, 4.17237, 4.17075, 4.16945, 4.16823, 4.16721, 4.16615, 4.16567, 4.16489, 4.16433, 4.16366, 4.16331]",2925.5,3.6,3.7
250,0.5,1,45,"[0.0, 30.4622, 66.1466, 101.683, 135.894, 169.312, 205.117, 242.888, 283.732, 320.205]","[4.18107, 4.17701, 4.1743, 4.17233, 4.17063, 4.16941, 4.16811, 4.16717, 4.16622, 4.16548, 4.16477, 4.16426, 4.163547, 4.16303]",2922.79,3.6,3.7
253,0.5,1,45,"[0.0, 30.2291, 66.3576, 101.688, 136.292, 169.927, 205.037, 243.117, 284.071, 320.237]","[4.18095, 4.17705, 4.17441, 4.17233, 4.17063, 4.1693, 4.16808, 4.16717, 4.16618, 4.16548, 4.16481, 4.1641, 4.163547, 4.16303]",2920.55,3.6,3.7
258,0.5,1,45,"[0.0, 23.9263, 59.2564, 95.0151, 129.363, 162.938, 197.983, 235.817, 276.557, 320.239]","[4.18091, 4.17686, 4.17418, 4.172091, 4.17048, 4.1691, 4.16796, 4.16705, 4.165988, 4.16528, 4.16437, 4.16386, 4.16331, 4.16276]",2917.21,3.6,3.7
261,0.5,1,45,"[0.0, 23.4895, 59.2574, 95.0301, 128.872, 162.373, 198.225, 235.849, 276.66, 320.186]","[4.18087, 4.17697, 4.17414, 4.17213, 4.17036, 4.16906, 4.16784, 4.16681, 4.165988, 4.165122, 4.16457, 4.16378, 4.16323, 4.1628]",2914.47,3.6,3.7
264,0.5,1,45,"[0.0, 33.9775, 69.4091, 105.212, 139.167, 172.901, 208.273, 245.741, 286.377, 320.251]","[4.1806, 4.17666, 4.1739, 4.17182, 4.17028, 4.16874, 4.1676, 4.16646, 4.16583, 4.16489, 4.1641, 4.16351, 4.16303, 4.16244]",2911.6,3.6,3.7
267,0.5,1,45,"[0.0, 21.4933, 56.8542, 92.8923, 127.149, 160.97, 195.781, 232.873, 273.616, 320.122]","[4.18052, 4.17666, 4.1739, 4.17189, 4.1702, 4.16878, 4.16764, 4.16666, 4.16571, 4.16481, 4.1641, 4.163547, 4.16292, 4.16248]",2909.23,3.6,3.7
270,0.5,1,45,"[0.0, 21.1611, 57.1468, 92.6091, 126.9, 160.58, 195.449, 232.95, 273.055, 305.778]","[4.18052, 4.17654, 4.17386, 4.1717, 4.170083, 4.168705, 4.16744, 4.16642, 4.16548, 4.16469, 4.16398, 4.16339, 4.16276, 4.16233]",2906.57,3.6,3.7
273,0.5,1,45,"[0.0, 33.5121, 68.9941, 104.545, 139.275, 172.976, 207.698, 245.117, 285.723, 320.319]","[4.1804, 4.1765, 4.17363, 4.17142, 4.16989, 4.16855, 4.167366, 4.1663, 4.16532, 4.16453, 4.16394, 4.16319, 4.1626, 4.16209]",2904.33,3.6,3.7
276,0.5,1,45,"[0.0, 32.593, 68.0115, 103.833, 138.346, 172.006, 206.674, 243.992, 284.412, 320.082]","[4.18032, 4.17623, 4.17355, 4.17134, 4.16993, 4.16827, 4.16717, 4.16618, 4.16524, 4.16437, 4.16378, 4.16303, 4.16252, 4.16189]",2901.67,3.6,3.7
279,0.5,1,45,"[0.0, 31.5283, 67.2627, 102.795, 137.422, 170.948, 205.952, 243.129, 283.222, 320.075]","[4.18016, 4.17623, 4.17343, 4.17146, 4.16977, 4.16819, 4.16705, 4.16611, 4.165122, 4.16433, 4.163547, 4.162838, 4.16241, 4.16181]",2899.58,3.6,3.7
282,0.5,1,45,"[0.0, 29.0796, 64.3761, 100.049, 134.34, 167.974, 203.158, 240.232, 280.121, 320.198]","[4.18024, 4.17607, 4.17327, 4.17119, 4.16949, 4.16796, 4.16681, 4.16563, 4.16477, 4.1641, 4.16347, 4.16268, 4.161972, 4.1615]",2896.67,3.6,3.7
285,0.5,1,45,"[0.0, 26.8636, 62.3209, 97.9263, 132.436, 166.546, 200.908, 238.39, 278.178, 320.36]","[4.18016, 4.17615, 4.17335, 4.17123, 4.16953, 4.16815, 4.16693, 4.16587, 4.165, 4.16418, 4.16351, 4.1628, 4.16213, 4.16166]",2894.46,3.6,3.7
288,0.5,1,45,"[0.0, 25.225, 60.5507, 96.1164, 130.73, 164.067, 199.47, 236.519, 275.919, 320.313]","[4.18001, 4.17599, 4.17331, 4.17107, 4.16926, 4.16784, 4.16658, 4.16567, 4.16481, 4.16394, 4.16331, 4.16256, 4.16189, 4.1615]",2892.07,3.6,3.7
291,0.5,1,45,"[0.0, 23.1606, 58.7338, 94.2316, 128.621, 162.493, 196.533, 233.623, 273.419, 305.595]","[4.18001, 4.17595, 4.17315, 4.17115, 4.16922, 4.16788, 4.166697, 4.16552, 4.16465, 4.16398, 4.16311, 4.16256, 4.16178, 4.161263]",2890.01,3.6,3.7
294,0.5,1,45,"[0.0, 24.3113, 59.9057, 95.8803, 130.483, 164.074, 198.469, 235.697, 275.443, 305.774]","[4.179966, 4.17571, 4.17292, 4.17095, 4.1693, 4.16776, 4.16658, 4.1654, 4.16457, 4.16374, 4.163, 4.16237, 4.1617, 4.16115]",2887.54,3.6,3.7
297,0.5,1,45,"[0.0, 21.4362, 57.1825, 92.6972, 127.219, 161.033, 195.76, 232.531, 271.935, 305.76]","[4.17989, 4.17571, 4.17292, 4.17075, 4.1691, 4.16764, 4.16646, 4.16536, 4.16449, 4.16363, 4.16288, 4.16221, 4.16154, 4.16091]",2885.12,3.6,3.7
300,0.5,1,45,"[0.0, 32.6594, 68.1051, 103.673, 138.371, 171.769, 206.517, 243.469, 283.042, 320.035]","[4.17969, 4.17571, 4.17296, 4.17083, 4.16906, 4.1676, 4.16634, 4.16536, 4.164413, 4.16359, 4.162838, 4.16217, 4.1615, 4.16099]",2882.69,3.6,3.7
303,0.5,1,45,"[0.0, 32.2175, 67.5581, 103.642, 138.291, 171.959, 206.038, 243.293, 282.546, 320.221]","[4.17961, 4.17571, 4.1728, 4.170516, 4.16898, 4.16741, 4.16622, 4.16504, 4.16426, 4.16331, 4.16256, 4.161972, 4.16138, 4.16075]",2880.07,3.6,3.7
308,0.5,1,45,"[0.0, 27.4481, 63.0356, 98.3807, 133.238, 166.453, 200.882, 237.712, 276.961, 320.199]","[4.17961, 4.17544, 4.1726, 4.1704, 4.16874, 4.16709, 4.16595, 4.16489, 4.16394, 4.16307, 4.16241, 4.16174, 4.16107, 4.16048]",2876.7,3.6,3.7
311,0.5,1,45,"[0.0, 25.7143, 61.2402, 96.4123, 130.961, 165.078, 199.454, 236.234, 275.222, 305.785]","[4.179533, 4.17544, 4.17256, 4.17044, 4.16863, 4.16721, 4.16591, 4.16481, 4.1639, 4.16311, 4.16233, 4.16154, 4.16115, 4.16044]",2874.09,3.6,3.7
314,0.5,1,45,"[0.0, 26.1956, 61.4949, 97.3822, 131.586, 165.059, 199.843, 236.233, 275.264, 305.527]","[4.17941, 4.17528, 4.17245, 4.17024, 4.16839, 4.16701, 4.16579, 4.16457, 4.16366, 4.16288, 4.16209, 4.16134, 4.16087, 4.16032]",2871.41,3.6,3.7
317,0.5,1,45,"[0.0, 24.4371, 59.7745, 95.3964, 130.219, 163.542, 198.269, 234.909, 273.252, 305.422]","[4.17934, 4.17532, 4.17252, 4.17028, 4.16855, 4.16701, 4.16571, 4.16473, 4.16378, 4.16276, 4.16205, 4.16158, 4.16087, 4.16028]",2869.35,3.6,3.7
320,0.5,1,45,"[0.0, 21.5587, 56.7193, 92.1394, 127.406, 160.82, 195.209, 231.628, 270.347, 305.767]","[4.17918, 4.17504, 4.17217, 4.170083, 4.16827, 4.16685, 4.16559, 4.16445, 4.16351, 4.16268, 4.16166, 4.16118, 4.16048, 4.15996]",2866.81,3.6,3.7
323,0.5,1,45,"[0.0, 21.9244, 57.0758, 92.7345, 127.404, 160.632, 195.147, 231.406, 270.704, 305.676]","[4.17922, 4.17501, 4.17213, 4.17, 4.16815, 4.166697, 4.16544, 4.164413, 4.16343, 4.16244, 4.16185, 4.16115, 4.16059, 4.15992]",2864.56,3.6,3.7
326,0.5,1,45,"[0.0, 21.3651, 56.3903, 92.2234, 126.861, 160.893, 194.809, 231.051, 270.07, 305.611]","[4.17914, 4.17493, 4.17217, 4.16989, 4.16804, 4.166697, 4.16544, 4.1643, 4.16335, 4.16241, 4.1617, 4.16095, 4.16036, 4.15977]",2862.41,3.6,3.7
329,0.5,1,45,"[0.0, 33.6784, 69.2742, 104.746, 139.567, 172.826, 207.717, 243.889, 282.343, 320.085]","[4.17918, 4.17481, 4.17201, 4.16981, 4.168, 4.16642, 4.16528, 4.16418, 4.16331, 4.16241, 4.1615, 4.16087, 4.16036, 4.15981]",2860.08,3.6,3.7
332,0.5,1,45,"[0.0, 30.3038, 65.1924, 100.694, 135.883, 169.592, 203.37, 239.38, 278.22, 320.024]","[4.17898, 4.17481, 4.17205, 4.16973, 4.16792, 4.16646, 4.16516, 4.16406, 4.16315, 4.16237, 4.16134, 4.16067, 4.16012, 4.15957]",2857.89,3.6,3.7
335,0.5,1,45,"[0.0, 29.3304, 64.6987, 100.401, 135.083, 168.619, 202.918, 238.85, 277.678, 305.745]","[4.17894, 4.17473, 4.17189, 4.16961, 4.16784, 4.16634, 4.165122, 4.1641, 4.16292, 4.16217, 4.16138, 4.16067, 4.1602, 4.15937]",2855.62,3.6,3.7
338,0.5,1,45,"[0.0, 27.1559, 61.9894, 97.8768, 132.77, 166.18, 200.63, 236.731, 275.266, 305.682]","[4.1789, 4.17485, 4.17182, 4.16961, 4.16788, 4.16622, 4.16504, 4.16398, 4.16307, 4.16209, 4.161263, 4.16063, 4.16, 4.159452]",2853.72,3.6,3.7
341,0.5,1,45,"[0.0, 27.0006, 62.3311, 98.0975, 132.715, 166.504, 200.505, 236.548, 274.934, 305.766]","[4.17882, 4.17461, 4.17162, 4.16953, 4.16764, 4.16611, 4.16485, 4.16386, 4.1628, 4.16193, 4.16111, 4.16051, 4.15973, 4.15941]",2851.27,3.6,3.7
344,0.5,1,45,"[0.0, 26.169, 60.801, 96.8589, 130.822, 165.099, 199.174, 235.389, 273.397, 305.675]","[4.17875, 4.17457, 4.1715, 4.16933, 4.16748, 4.165988, 4.16481, 4.16359, 4.16256, 4.1617, 4.161027, 4.16036, 4.159688, 4.15914]",2848.99,3.6,3.7
347,0.5,1,45,"[0.0, 23.1591, 57.8501, 93.0649, 128.07, 162.151, 195.505, 231.73, 269.656, 305.636]","[4.17859, 4.17445, 4.17158, 4.16937, 4.16741, 4.165988, 4.16485, 4.1637, 4.1626, 4.16178, 4.16087, 4.16016, 4.15973, 4.15898]",2846.95,3.6,3.7
350,0.5,1,45,"[0.0, 22.3029, 57.48, 93.3225, 127.707, 161.166, 195.253, 231.541, 269.445, 305.416]","[4.178627, 4.17434, 4.17134, 4.16914, 4.16721, 4.16591, 4.16449, 4.16343, 4.16252, 4.16162, 4.16075, 4.16016, 4.15949, 4.15886]",2844.65,3.6,3.7
353,0.5,1,45,"[0.0, 20.7945, 55.8367, 91.4367, 126.502, 159.981, 193.857, 229.668, 267.4, 305.534]","[4.17847, 4.17437, 4.17119, 4.16902, 4.16705, 4.16571, 4.16433, 4.16335, 4.16233, 4.16154, 4.16063, 4.15996, 4.15929, 4.1587]",2842.18,3.6,3.7
356,0.5,1,45,"[0.0, 19.5386, 54.3368, 90.2125, 124.823, 158.793, 192.385, 228.298, 266.157, 305.456]","[4.17835, 4.17402, 4.17099, 4.16902, 4.16701, 4.16552, 4.16414, 4.16315, 4.16217, 4.16122, 4.16055, 4.15981, 4.159019, 4.15859]",2839.81,3.6,3.7
361,0.5,1,45,"[0.0, 28.1211, 63.5508, 98.8324, 134.211, 167.537, 201.63, 237.471, 275.36, 305.185]","[4.17812, 4.17398, 4.17095, 4.16859, 4.16689, 4.16528, 4.16398, 4.16288, 4.161972, 4.16111, 4.1602, 4.15957, 4.15894, 4.15831]",2836.33,3.6,3.7
364,0.5,1,45,"[0.0, 30.0113, 64.725, 100.212, 135.016, 168.783, 202.572, 238.428, 275.832, 305.746]","[4.17815, 4.17394, 4.17095, 4.16867, 4.16681, 4.16536, 4.16406, 4.16276, 4.16185, 4.161027, 4.1602, 4.15957, 4.15882, 4.15827]",2834.08,3.6,3.7
367,0.5,1,45,"[0.0, 28.217, 63.078, 98.2587, 133.085, 167.026, 200.889, 236.119, 274.199, 305.767]","[4.17804, 4.17386, 4.17083, 4.16843, 4.166697, 4.16516, 4.16374, 4.16264, 4.16178, 4.16087, 4.16, 4.15937, 4.15859, 4.15803]",2831.77,3.6,3.7
370,0.5,1,45,"[0.0, 26.9692, 61.5856, 97.205, 131.93, 166.065, 199.709, 235.193, 272.739, 305.767]","[4.17804, 4.17378, 4.17083, 4.16851, 4.16658, 4.165122, 4.16382, 4.16272, 4.16166, 4.16075, 4.15992, 4.15929, 4.15859, 4.158]",2829.7,3.6,3.7
373,0.5,1,45,"[0.0, 24.8085, 59.2808, 94.74, 129.87, 163.344, 197.592, 232.711, 270.243, 305.406]","[4.177958, 4.17359, 4.17063, 4.16823, 4.1665, 4.16496, 4.16351, 4.16256, 4.16142, 4.16063, 4.15977, 4.15906, 4.15839, 4.15796]",2827.32,3.6,3.7
376,0.5,1,45,"[0.0, 24.2686, 58.5983, 93.9658, 128.996, 162.709, 196.466, 231.891, 269.456, 305.598]","[4.17788, 4.17347, 4.17063, 4.16811, 4.1663, 4.16485, 4.16351, 4.16237, 4.16138, 4.16044, 4.15977, 4.1587, 4.15815, 4.15752]",2824.94,3.6,3.7
379,0.5,1,45,"[0.0, 21.9225, 56.5004, 91.5888, 126.868, 160.192, 194.039, 229.841, 267.216, 305.505]","[4.1778, 4.17331, 4.17036, 4.16811, 4.16618, 4.16461, 4.16339, 4.16213, 4.16118, 4.16032, 4.15949, 4.15878, 4.15807, 4.157444]",2822.79,3.6,3.7
382,0.5,1,45,"[0.0, 21.9232, 56.0609, 91.7646, 126.794, 160.789, 194.206, 229.445, 266.937, 305.719]","[4.1778, 4.17331, 4.17032, 4.168, 4.16626, 4.16469, 4.16327, 4.16213, 4.16095, 4.16028, 4.15933, 4.15863, 4.15796, 4.15736]",2820.72,3.6,3.7
385,0.5,1,45,"[0.0, 18.8997, 53.468, 88.7751, 124.264, 158.045, 191.663, 227.044, 264.104, 291.18]","[4.17756, 4.17319, 4.1702, 4.16784, 4.165988, 4.16449, 4.16319, 4.16193, 4.16095, 4.15996, 4.159019, 4.15859, 4.15776, 4.15725]",2818.34,3.6,3.7
388,0.5,1,45,"[0.0, 32.3572, 66.4445, 101.832, 136.946, 170.85, 204.02, 239.695, 276.785, 305.484]","[4.17737, 4.17296, 4.17, 4.16776, 4.16579, 4.16418, 4.16288, 4.16181, 4.16079, 4.15992, 4.159019, 4.15835, 4.1576, 4.15697]",2815.97,3.6,3.7
391,0.5,1,45,"[0.0, 31.1613, 65.6299, 101.165, 135.889, 169.967, 203.502, 238.601, 275.835, 305.348]","[4.17741, 4.173, 4.16993, 4.1676, 4.16567, 4.16426, 4.162838, 4.16166, 4.16063, 4.15981, 4.15886, 4.15823, 4.15752, 4.15689]",2813.82,3.6,3.7
394,0.5,1,45,"[0.0, 29.7624, 64.352, 99.632, 134.745, 168.417, 201.876, 237.331, 274.71, 305.216]","[4.17733, 4.17308, 4.16985, 4.167563, 4.16575, 4.16414, 4.16276, 4.16166, 4.16067, 4.15977, 4.1589, 4.15807, 4.1576, 4.15677]",2811.68,3.6,3.7
397,0.5,1,45,"[0.0, 27.9983, 62.4198, 97.5482, 132.329, 166.194, 199.987, 235.179, 272.235, 305.533]","[4.17729, 4.173, 4.16993, 4.16744, 4.16567, 4.1641, 4.16268, 4.16158, 4.16063, 4.15965, 4.15894, 4.158113, 4.15729, 4.15677]",2809.73,3.6,3.7
400,0.5,1,45,"[0.0, 27.587, 61.6678, 96.8886, 131.716, 165.795, 199.38, 233.91, 271.662, 305.544]","[4.17721, 4.17284, 4.16957, 4.167366, 4.165555, 4.16406, 4.16268, 4.1615, 4.16048, 4.15949, 4.15874, 4.15803, 4.15725, 4.1565]",2807.64,3.6,3.7
403,0.5,1,45,"[0.0, 22.9632, 57.0959, 92.2641, 127.374, 161.471, 194.997, 229.566, 266.66, 305.351]","[4.177249, 4.1728, 4.16981, 4.16741, 4.16552, 4.16402, 4.16256, 4.16138, 4.1604, 4.15949, 4.15859, 4.15792, 4.15729, 4.15654]",2805.69,3.6,3.7
406,0.5,1,45,"[0.0, 24.4652, 58.5596, 94.0592, 128.76, 162.696, 196.423, 231.283, 268.319, 305.267]","[4.17717, 4.1726, 4.16965, 4.167366, 4.16536, 4.16382, 4.16241, 4.16138, 4.1602, 4.15929, 4.15855, 4.157877, 4.15717, 4.15642]",2803.53,3.6,3.7
411,0.5,1,45,"[0.0, 30.2222, 64.4869, 99.8171, 134.594, 168.584, 202.13, 237.238, 274.013, 305.624]","[4.17709, 4.17256, 4.16949, 4.16721, 4.1652, 4.16363, 4.16237, 4.16107, 4.16008, 4.1591, 4.15819, 4.15756, 4.15689, 4.15622]",2799.23,3.6,3.7
414,0.5,1,45,"[0.0, 28.4694, 62.4927, 97.865, 132.804, 166.753, 199.967, 234.998, 272.07, 305.544]","[4.17693, 4.17245, 4.16941, 4.16705, 4.16508, 4.16366, 4.16225, 4.16099, 4.16, 4.15922, 4.15823, 4.15756, 4.15677, 4.15622]",2797.48,3.6,3.7
417,0.5,1,45,"[0.0, 31.2388, 65.2505, 100.246, 135.51, 169.373, 203.305, 237.767, 274.414, 305.383]","[4.17693, 4.17256, 4.16933, 4.16709, 4.16504, 4.16347, 4.16217, 4.16095, 4.15988, 4.1589, 4.15807, 4.1574, 4.15666, 4.15599]",2794.83,3.6,3.7
420,0.5,1,45,"[0.0, 28.4306, 62.9541, 98.0216, 133.315, 167.06, 200.83, 235.542, 272.169, 305.684]","[4.17693, 4.17245, 4.16922, 4.16693, 4.16508, 4.16351, 4.16217, 4.161027, 4.15985, 4.159019, 4.15823, 4.15733, 4.15677, 4.15607]",2792.74,3.6,3.7
423,0.5,1,45,"[0.0, 22.1567, 55.6147, 91.0496, 125.946, 159.551, 193.8, 228.336, 265.147, 290.957]","[4.17693, 4.17248, 4.16945, 4.16685, 4.16508, 4.16343, 4.16209, 4.16091, 4.15996, 4.1589, 4.15796, 4.1574, 4.15654, 4.15599]",2790.56,3.6,3.7
426,0.5,1,45,"[0.0, 25.9382, 59.9361, 94.8566, 129.887, 163.946, 197.327, 232.068, 268.906, 304.895]","[4.17674, 4.17217, 4.16914, 4.16685, 4.16489, 4.16327, 4.16209, 4.16075, 4.15985, 4.15874, 4.15792, 4.15725, 4.15658, 4.15591]",2788.4,3.6,3.7
429,0.5,1,45,"[0.0, 26.4957, 60.9001, 95.3373, 130.56, 164.518, 197.939, 232.923, 269.094, 305.362]","[4.1765, 4.17197, 4.16898, 4.16658, 4.16457, 4.16307, 4.16154, 4.16048, 4.15949, 4.15847, 4.15756, 4.15693, 4.15618, 4.15551]",2785.79,3.6,3.7
432,0.5,1,45,"[0.0, 22.3498, 56.4836, 91.6265, 126.376, 160.74, 194.199, 228.57, 265.272, 290.945]","[4.17642, 4.172091, 4.168941, 4.16662, 4.16461, 4.16311, 4.16162, 4.16044, 4.15941, 4.15847, 4.15764, 4.15685, 4.15614, 4.15548]",2784.21,3.6,3.7
435,0.5,1,45,"[0.0, 20.8721, 54.8529, 89.9666, 124.713, 158.749, 192.194, 227.164, 263.832, 290.525]","[4.17646, 4.17178, 4.168705, 4.1663, 4.16433, 4.1628, 4.16146, 4.1602, 4.15922, 4.15827, 4.157444, 4.15662, 4.15599, 4.15536]",2781.56,3.6,3.7
438,0.5,1,45,"[0.0, 20.3932, 54.2551, 89.208, 124.555, 158.651, 191.951, 226.651, 262.769, 291.087]","[4.17642, 4.171855, 4.16874, 4.16622, 4.16433, 4.1628, 4.16142, 4.16012, 4.15914, 4.15823, 4.15733, 4.15654, 4.15591, 4.15532]",2779.56,3.6,3.7
441,0.5,1,45,"[0.0, 18.6457, 52.7934, 87.4902, 122.284, 156.692, 190.344, 224.511, 260.682, 290.97]","[4.1763, 4.1717, 4.16855, 4.16615, 4.16433, 4.16268, 4.1613, 4.16004, 4.159019, 4.15815, 4.15725, 4.15638, 4.15583, 4.1552]",2777.6,3.6,3.7
444,0.5,1,45,"[0.0, 28.7979, 62.8629, 97.6814, 133.226, 167.157, 200.253, 234.972, 271.502, 305.256]","[4.17615, 4.17162, 4.16851, 4.165988, 4.1641, 4.16248, 4.16115, 4.15996, 4.1589, 4.158, 4.15709, 4.15634, 4.15563, 4.15492]",2775.37,3.6,3.7
447,0.5,1,45,"[0.0, 29.6474, 63.9561, 98.864, 133.674, 167.477, 200.939, 235.653, 271.868, 305.184]","[4.17611, 4.17158, 4.16843, 4.16603, 4.16394, 4.16248, 4.16111, 4.15992, 4.15874, 4.15796, 4.15705, 4.15614, 4.15555, 4.155]",2773.43,3.6,3.7
450,0.5,1,45,"[0.0, 28.5713, 62.573, 97.5032, 132.698, 166.614, 199.821, 234.557, 270.453, 305.42]","[4.17611, 4.17154, 4.16835, 4.16587, 4.16402, 4.16248, 4.161027, 4.15985, 4.15882, 4.15796, 4.15685, 4.15614, 4.15548, 4.155]",2772.15,3.6,3.7
453,0.5,1,45,"[0.0, 26.1688, 60.3121, 95.0496, 129.877, 163.774, 197.608, 231.681, 268.139, 305.376]","[4.17575, 4.17138, 4.16819, 4.16563, 4.1637, 4.16221, 4.16075, 4.15953, 4.15847, 4.15756, 4.15673, 4.15595, 4.15516, 4.15453]",2768.79,3.6,3.7
456,0.5,1,45,"[0.0, 28.2806, 61.8783, 96.8712, 131.739, 165.515, 199.019, 233.79, 269.853, 305.398]","[4.17587, 4.17123, 4.16815, 4.16571, 4.16374, 4.16221, 4.16079, 4.15953, 4.15831, 4.15752, 4.15677, 4.15591, 4.1552, 4.15457]",2767.26,3.6,3.7
461,0.5,1,45,"[0.0, 20.9977, 55.0573, 89.4971, 124.836, 158.5, 192.359, 226.381, 262.104, 290.954]","[4.17571, 4.17119, 4.168, 4.16552, 4.16366, 4.16189, 4.16044, 4.15929, 4.15827, 4.15729, 4.15634, 4.15555, 4.15488, 4.15425]",2764.12,3.6,3.7
464,0.5,1,45,"[0.0, 23.0455, 57.1029, 91.27, 126.431, 160.744, 193.167, 227.821, 264.215, 289.922]","[4.175674, 4.17095, 4.16788, 4.16536, 4.16343, 4.16178, 4.16048, 4.15918, 4.15807, 4.15713, 4.15634, 4.15548, 4.15485, 4.15422]",2761.33,3.6,3.7
465,0.5,1,45,"[0.0, 22.3765, 55.8832, 90.5117, 125.666, 160.017, 193.341, 227.408, 263.207, 290.738]","[4.1754, 4.17083, 4.167563, 4.16516, 4.16319, 4.16154, 4.16016, 4.159019, 4.15792, 4.15693, 4.15614, 4.15524, 4.15453, 4.15398]",2760,3.6,3.7